STUDYID,RDOMAIN,USUBJID,IDVAR,IDVARVAL,RELTYPE,RELID
CDISCPILOT01,AE,,AELNKID,,ONE,AEDS
CDISCPILOT01,DS,,DSLNKID,,ONE,AEDS
CDISCPILOT01,AE,,AELNKID,,ONE,AEDD
CDISCPILOT01,DD,,DDLNKID,,ONE,AEDD
CDISCPILOT01,AE,,AELNKID,,ONE,AEFA
CDISCPILOT01,FA,,FALNKGRP,,MANY,AEFA
CDISCPILOT01,AE,CDISC001,AESEQ,1,ONE,AECM1
CDISCPILOT01,CM,CDISC001,CMSEQ,2,ONE,AECM1
CDISCPILOT01,CM,CDISC001,CMSEQ,5,ONE,AECM1
CDISCPILOT01,AE,CDISC001,AESEQ,2,ONE,AECM2
CDISCPILOT01,CM,CDISC001,CMSEQ,4,ONE,AECM2
