{4 items
"rule":{9 items
"Authorities":[1 item
0:{2 items
"Organization":"CDISC"
"Standards":[4 items
0:{3 items
"Name":"SDTMIG"
"References":[1 item
0:{4 items
"Citations":[1 item
0:{4 items
"Document":"SDTMIG v3.4"
"Item":"Specification"
"Section":"6.3.5.6"
"Cited_Guidance":"Lower end of reference range for continuous measurements for LBSTRESC/LBSTRESN in standardized units. Should be populated only for continuous results."
}
]
"Origin":"SDTM and SDTMIG Conformance Rules"
"Version":"2.0"
"Rule_Identifier":{2 items
"Id":"CG0180"
"Version":"1"
}
}
]
"Version":"3.4"
}
1:{3 items
"Name":"SDTMIG"
"References":[1 item
0:{4 items
"Citations":[1 item
0:{4 items
"Document":"IG v3.2"
"Item":"Specification"
"Section":"6.3"
"Cited_Guidance":"Lower end of reference range for continuous measurements in original units. Should be populated only for continuous results."
}
]
"Origin":"SDTM and SDTMIG Conformance Rules"
"Version":"2.0"
"Rule_Identifier":{2 items
"Id":"CG0180"
"Version":"1"
}
}
]
"Version":"3.2"
}
2:{3 items
"Name":"SDTMIG"
"References":[1 item
0:{4 items
"Citations":[1 item
0:{4 items
"Document":"IG v3.3"
"Item":"Specification"
"Section":"6.3.6"
"Cited_Guidance":"Lower end of reference range for continuous measurements in original units. Should be populated only for continuous results."
}
]
"Origin":"SDTM and SDTMIG Conformance Rules"
"Version":"2.0"
"Rule_Identifier":{2 items
"Id":"CG0180"
"Version":"1"
}
}
]
"Version":"3.3"
}
3:{4 items
"Name":"TIG"
"References":[1 item
0:{4 items
"Citations":[1 item
0:{4 items
"Document":"TIG 1.0"
"Item":"Specification"
"Section":"2.8.10.14"
"Cited_Guidance":"Lower end of reference range for continuous measurement in original units. Should be populated only for continuous results."
}
]
"Origin":"TIG Conformance Rules"
"Version":"1.0"
"Rule_Identifier":{2 items
"Id":"TIG0409"
"Version":"1"
}
}
]
"Substandard":"SDTM"
"Version":"1.0"
}
]
}
]
"Check":{1 item
"all":[3 items
0:{3 items
"name":"LBORRES"
"operator":"not_matches_regex"
"value":"^-?(\d+(\.\d+)?$)|(\.\d+$)"
}
1:{2 items
"name":"LBORNRLO"
"operator":"non_empty"
}
2:{2 items
"name":"LBORRES"
"operator":"non_empty"
}
]
}
"Core":{3 items
"Id":"CORE-000290"
"Status":"Published"
"Version":"1"
}
"Description":"Raise an error when LBORRES ^= continuous measurement and LBORNRLO is not empty. The interpretation of the guidance is that LBORRES is populated (not null)."
"Executability":"Fully Executable"
"Outcome":{1 item
"Message":"LBORRES is not a continuous measurement but LBORNRLO is not empty."
}
"Scope":{3 items
"Classes":{1 item
"Include":[1 item
0:"FINDINGS"
]
}
"Domains":{1 item
"Include":[1 item
0:"LB"
]
}
"Use_Case":"INDH"
}
"Sensitivity":"Record"
"Rule_Type":"Record Data"
}
"datasets":[1 item
0:{5 items
"filename":"lb.xpt"
"label":"Laboratory Test Results"
"domain":"LB"
"variables":[13 items
0:{4 items
"name":"STUDYID"
"label":"Study Identifier"
"type":"Char"
"length":50
}
1:{4 items
"name":"DOMAIN"
"label":"Domain Abbreviation"
"type":"Char"
"length":50
}
2:{4 items
"name":"USUBJID"
"label":"Unique Subject Identifier"
"type":"Char"
"length":50
}
3:{4 items
"name":"LBSEQ"
"label":"Sequence Number"
"type":"Num"
"length":8
}
4:{4 items
"name":"LBTESTCD"
"label":"Lab Test or Examination Short Name"
"type":"Char"
"length":50
}
5:{4 items
"name":"LBTEST"
"label":"Lab Test or Examination Name"
"type":"Char"
"length":50
}
6:{4 items
"name":"LBORRES"
"label":"Result or Finding in Original Units"
"type":"Char"
"length":50
}
7:{4 items
"name":"LBORRESU"
"label":"Original Units"
"type":"Char"
"length":50
}
8:{4 items
"name":"LBSTRESC"
"label":"Character Result/Finding in Std Format"
"type":"Char"
"length":50
}
9:{4 items
"name":"LBSTRESN"
"label":"Numeric Result/Finding in Standard Units"
"type":"Num"
"length":8
}
10:{4 items
"name":"LBSTRESU"
"label":"Standard Units"
"type":"Char"
"length":50
}
11:{4 items
"name":"LBORNRLO"
"label":"Reference Range Lower Limit in Orig Unit"
"type":"Char"
"length":50
}
12:{4 items
"name":"LBORNRHI"
"label":"Reference Range Upper Limit in Orig Unit"
"type":"Char"
"length":50
}
]
"records":{13 items
"STUDYID":[4 items
0:"123101"
1:"123101"
2:"123101"
3:"123101"
]
"DOMAIN":[4 items
0:"LB"
1:"LB"
2:"LB"
3:"LB"
]
"USUBJID":[4 items
0:"ALB"
1:"Prot"
2:"Prot"
3:"Prot"
]
"LBSEQ":[4 items
0:1
1:2
2:3
3:4
]
"LBTESTCD":[4 items
0:"ALB"
1:"ALP"
2:"ALP"
3:"ALP"
]
"LBTEST":[4 items
0:"Albumin"
1:"Alkaline Phosphatase"
2:"Alkaline Phosphatase"
3:"Alkaline Phosphatase"
]
"LBORRES":[4 items
0:"NEGATIVE"
1:"POSITIVE"
2:"40"
3:".45"
]
"LBORRESU":[4 items
0:"g/L"
1:"IU/L"
2:"IU/L"
3:"IU/L"
]
"LBSTRESC":[4 items
0:"3.0"
1:"398"
2:"398"
3:"398"
]
"LBSTRESN":[4 items
0:3
1:398
2:398
3:398
]
"LBSTRESU":[4 items
0:"g/L"
1:"IU/L"
2:"IU/L"
3:"IU/L"
]
"LBORNRLO":[4 items
0:""
1:""
2:"0"
3:"10"
]
"LBORNRHI":[4 items
0:"5"
1:"POSITIVE"
2:"40"
3:"40"
]
}
}
]
"standard":{2 items
"product":"sdtmig"
"version":"3-4"
}
"codelists":[]0 items
}