STUDYID,DOMAIN,USUBJID,DSSEQ,DSTERM,DSDECOD,DSCAT,DSSTDTC,VISITDY
CDISCCORE01,DS,ANIMAL1,1,INTERIM SACRIFICE ,INTERIM SACRIFICE,PROTOCOL MILESTONE,2018-03-06,1
CDISCCORE01,DS,ANIMAL2,1,OTHER,OTHER,PROTOCOL MILESTONE,2018-04-17,
CDISCCORE01,DS,ANIMAL3,1,RECOVERY SACRIFICE ,RECOVERY SACRIFICE,PROTOCOL MILESTONE,2018-04-17,5
CDISCCORE01,DS,ANIMAL4,1,OTHER,OTHER,PROTOCOL MILESTONE,2018-04-18,
CDISCCORE01,DS,ANIMAL5,1,REMOVED FROM STUDY ALIVE,REMOVED FROM STUDY ALIVE,PROTOCOL MILESTONE,2018-04-19,3
CDISCCORE01,DS,ANIMAL6,1,OTHER,OTHER,PROTOCOL MILESTONE,2018-04-20,
CDISCCORE01,DS,ANIMAL7,1,TERMINAL SACRIFICE ,TERMINAL SACRIFICE,PROTOCOL MILESTONE,2018-04-21,2
CDISCCORE01,DS,ANIMAL8,1,OTHER,OTHER,PROTOCOL MILESTONE,2018-04-22,
