dataset,variable,label,type,length
ex.xpt,STUDYID,Study Identifier,Char,50
ex.xpt,DOMAIN,Domain Abbreviation,Char,50
ex.xpt,USUBJID,Unique Subject Identifier,Char,50
ex.xpt,EXSEQ,Sequence Number,Num,8
ex.xpt,EXTRT,Name of Treatment,Char,50
ex.xpt,EXDOSE,Dose,Num,8
ex.xpt,EXDOSU,Dose Units,Char,50
ex.xpt,EXDOSFRM,Dose Form,Char,50
ex.xpt,EXSTDTC,Start Date/Time of Treatment,Char,50
ex.xpt,EXENDTC,End Date/Time of Treatment,Char,50
