STUDYID,DOMAIN,USUBJID,FOCID,OESEQ,OETESTCD,OETEST,OEORRES,OESTRESC,OELOC,OELAT,OEMETHOD,OELOBXFL,VISITNUM,VISIT,EPOCH,OEDTC,OEDY
CDISCPILOT01,OE,CDISC001,OD,1,INTP,Interpretation,NORMAL,NORMAL,EYE,RIGHT,SLIT LAMP,,1,SCREENING 1,SCREENING,2012-11-23,-7
CDISCPILOT01,OE,CDISC001,OS,2,INTP,Interpretation,ABNORMAL,ABNORMAL,EYE,LEFT,SLIT LAMP,,1,SCREENING 1,SCREENING,2012-11-23,-7
CDISCPILOT01,OE,CDISC001,OS,3,ABDETAIL,Abnormality Detail,SUPERFICIAL PUNCTATE KERATOPATHY,SUPERFICIAL PUNCTATE KERATOPATHY,CORNEA,LEFT,SLIT LAMP,,1,SCREENING 1,SCREENING,2012-11-23,-7
CDISCPILOT01,OE,CDISC001,OD,4,INTP,Interpretation,NORMAL,NORMAL,EYE,RIGHT,SLIT LAMP,,2,SCREENING 2,SCREENING,2012-11-28,-2
CDISCPILOT01,OE,CDISC001,OS,5,INTP,Interpretation,ABNORMAL,ABNORMAL,EYE,LEFT,SLIT LAMP,,2,SCREENING 2,SCREENING,2012-11-28,-2
CDISCPILOT01,OE,CDISC001,OS,6,ABDETAIL,Abnormality Detail,SUPERFICIAL PUNCTATE KERATOPATHY,SUPERFICIAL PUNCTATE KERATOPATHY,CORNEA,LEFT,SLIT LAMP,,2,SCREENING 2,SCREENING,2012-11-28,-2
CDISCPILOT01,OE,CDISC001,OD,7,INTP,Interpretation,NORMAL,NORMAL,EYE,RIGHT,SLIT LAMP,Y,3,BASELINE,SCREENING,2012-11-30,1
CDISCPILOT01,OE,CDISC001,OS,8,INTP,Interpretation,ABNORMAL,ABNORMAL,EYE,LEFT,SLIT LAMP,Y,3,BASELINE,SCREENING,2012-11-30,1
CDISCPILOT01,OE,CDISC001,OS,9,ABDETAIL,Abnormality Detail,SUPERFICIAL PUNCTATE KERATOPATHY,SUPERFICIAL PUNCTATE KERATOPATHY,CORNEA,LEFT,SLIT LAMP,,3,BASELINE,SCREENING,2012-11-30,1
CDISCPILOT01,OE,CDISC001,OD,10,INTP,Interpretation,NORMAL,NORMAL,EYE,RIGHT,SLIT LAMP,,4,WEEK 2,TREATMENT,2012-12-13,14
CDISCPILOT01,OE,CDISC001,OS,11,INTP,Interpretation,ABNORMAL,ABNORMAL,EYE,LEFT,SLIT LAMP,,4,WEEK 2,TREATMENT,2012-12-13,14
CDISCPILOT01,OE,CDISC003,OD,5,INTP,Interpretation,NORMAL,NORMAL,EYE,RIGHT,SLIT LAMP,Y,3,BASELINE,SCREENING,2013-08-29,1
CDISCPILOT01,OE,CDISC003,OS,6,INTP,Interpretation,NORMAL,NORMAL,EYE,LEFT,SLIT LAMP,Y,3,BASELINE,SCREENING,2013-08-29,1
CDISCPILOT01,OE,CDISC003,OD,7,INTP,Interpretation,NORMAL,NORMAL,EYE,RIGHT,SLIT LAMP,,4,WEEK 2,TREATMENT,2013-09-15,18
CDISCPILOT01,OE,CDISC004,OD,7,INTP,Interpretation,NORMAL,NORMAL,EYE,RIGHT,SLIT LAMP,Y,3,BASELINE,SCREENING,2013-10-08,1
CDISCPILOT01,OE,CDISC004,OS,8,INTP,Interpretation,ABNORMAL,ABNORMAL,EYE,LEFT,SLIT LAMP,Y,3,BASELINE,SCREENING,2013-10-08,1
CDISCPILOT01,OE,CDISC004,OS,9,ABDETAIL,Abnormality Detail,PTOSIS,PTOSIS,IRIS,LEFT,SLIT LAMP,,3,BASELINE,SCREENING,2013-10-08,1
CDISCPILOT01,OE,CDISC004,OD,10,INTP,Interpretation,NORMAL,NORMAL,EYE,RIGHT,SLIT LAMP,,4,WEEK 2,TREATMENT,2013-10-24,17
CDISCPILOT01,OE,CDISC004,OS,11,INTP,Interpretation,ABNORMAL,ABNORMAL,EYE,LEFT,SLIT LAMP,,4,WEEK 2,TREATMENT,2013-10-24,17
CDISCPILOT01,OE,CDISC004,OS,12,ABDETAIL,Abnormality Detail,PTOSIS,PTOSIS,IRIS,LEFT,SLIT LAMP,,4,WEEK 2,TREATMENT,2013-10-24,17
CDISCPILOT01,OE,CDISC004,OD,13,INTP,Interpretation,NORMAL,NORMAL,EYE,RIGHT,SLIT LAMP,,5,WEEK 4,TREATMENT,2013-11-08,32
