STUDYID,DOMAIN,USUBJID,EXSEQ,EXLNKID,EXTRT,EXDOSE,EXDOSTXT,EXDOSU,EXDOSFRM,EXDOSFRQ,EXROUTE,EXVAMT,EXVAMTU,EXSTDTC,EXENDTC,EXSTDY,EXENDY
ABC,EX,015246-076-0003-00004,1,A2-10110114,DRUG X,3,,mg/kg,INJECTION,ONCE,SUBCUTANEOUS,0.1,mL,2011-01-14 00:00:00,2011-01-28 00:00:00,1,15
ABC,EX,015246-300-0004-00012,1,A2-20110114,DRUG Z,500,,mg,TABLET,QD,ORAL,,,2011-01-14 00:00:00,2011-01-23 00:00:00,1,10
ABC,EX,015246-999-0004-10000,2,A2-20110125,DRUG Z,500,,mg,TABLET,QD,ORAL,,,2011-01-25 00:00:00,2011-01-28 00:00:00,12,15
