STUDYID,DOMAIN,USUBJID,DDSEQ,DDTESTCD,DDTEST,DDORRES,DDSTRESC,DDRESCAT
1234,DD,123101,1,PRCDTH,Primary Cause of Death,SUDDEN CARDIAC DEATH,SUDDEN CARDIAC DEATH,RELATED
1234,DD,123101,2,LOCDTH,Location of Death,HOME,HOME,UNDERTERMINED
