STUDYID,DOMAIN,USUBJID,MISEQ,MITESTCD,MITEST,MIORRES,MIORRESU,MISTRESC,MISTRESU,MIRESCAT,MISTAT
ABC,MI,ABC-1001,1,HER2,Human Epidermal Growth Factor Receptor 2,0,,0,,NEGATIVE,
ABC,MI,ABC-1002,1,HER2,Human Epidermal Growth Factor Receptor 2,2+,,2+,,POSITIVE,
