STUDYID,DOMAIN,USUBJID,SUBJID,RFSTDTC,RFENDTC,RFXSTDTC,RFXENDTC,RFICDTC,RFPENDTC,DTHDTC,DTHFL,SITEID,BRTHDTC,AGE,AGEU,SEX,RACE,ETHNIC,ARMCD,ARM,ACTARMCD,ACTARM,ARMNRS,ACTARMUD,COUNTRY
CDISCPILOT01,DM,CDISC001,1115,2012-11-30,2013-01-23,2012-11-30,2013-01-23,2012-11-23,2013-05-20,,,701,1928,84,YEARS,M,WHITE,NOT HISPANIC OR LATINO,ZAN_LOW,Zanomaline Low Dose (54 mg),ZAN_LOW,Zanomaline Low Dose (54 mg),,,USA
CDISCPILOT01,DM,CDISC002,1211,2012-11-15,2013-01-14,2012-11-15,2013-01-12,2012-10-30,2013-01-14,2013-01-14,Y,701,1936,76,YEARS,F,WHITE,NOT HISPANIC OR LATINO,ZAN_LOW,Zanomaline Low Dose (54 mg),ZAN_LOW,Zanomaline Low Dose (54 mg),,,USA
CDISCPILOT01,DM,CDISC003,1302,2013-08-29,2013-11-05,2013-08-29,2013-11-05,2013-08-20,2014-02-13,,,701,1951,61,YEARS,M,WHITE,NOT HISPANIC OR LATINO,ZAN_HIGH,Zanomaline High Dose (81 mg),ZAN_HIGH,Zanomaline High Dose (81 mg),,,USA
