STUDYID,DOMAIN,USUBJID,SUBJID,RFSTDTC,RFENDTC,RFXSTDTC,RFXENDTC,RFCSTDTC,RFCENDTC,RFICDTC,RFPENDTC,DTHDTC,DTHFL,SITEID,INVID,INVNAM,BRTHDTC,AGE,AGEU,AGETXT,SEX,RACE,ETHNIC,ARMCD,ARM,ACTARMCD,ACTARM,ARMNRS,ACTARMUD,COUNTRY,DMDTC,DMDY
TEST-1,DM,001,001,2022-03-20,,,,,,,,,,,,,2008-12-01,14,YEARS,,,,,,,,,,,,,
TEST-1,DM,002,002,2022-03-20,,,,,,,,,,,,,,,WEEKS,20-30,,,,,,,,,,,,
TEST-1,DM,003,003,2022-03-25,,,,,,,,,,,,,,,DAYS,30-40,,,,,,,,,,,,
TEST-1,DM,004,004,2022-03-26,,,,,,,,,,,,,,45,MONTHS,,,,,,,,,,,,,
TEST-1,DM,005,005,2022-03-26,,,,,,,,,,,,,,,MONTHS,60-70,,,,,,,,,,,,
TEST-1,DM,006,006,2022-03-27,,,,,,,,,,,,,,,,,,,,,,,,,,,,
