STUDYID,DOMAIN,USUBJID,SPDEVID,RESEQ,RETESTCD,RETEST,REORRES,REORRESU,REORREF,RESTRESC,RESTRESN,RESTRESU,RESTREFC,RESTREFN,VISITNUM,VISIT,REDTC
XYZ,RE,XYZ-001-001,ABC001,1,FEV1,Forced Expiratory Volume in 1 Second,2.73,L,3.37,2.73,2.73,L,2.73,2.73,2,VISIT 2,2013-06-30
XYZ,RE,XYZ-001-001,ABC001,2,FVC,Forced Vital Capacity,3.91,L,3.86,3.91,3.91,L,3.91,3.91,2,VISIT 2,2013-06-30
XYZ,RE,XYZ-001-001,ABC001,3,FEV1PP,Percent Predicted FEV1,81,%,,81,81,%,81,81,2,VISIT 2,2013-06-30
XYZ,RE,XYZ-001-001,ABC001,4,FVCPP,Percent Predicted Forced Vital Capacity,101.3,%,,101.3,101.3,%,101.3,101.3,2,VISIT 2,2013-06-30
XYZ,RE,XYZ-001-001,DEF999,5,PEF,Peak Expiratory Flow,6.11,L/s,7.33,6.11,6.11,L/s,6.11,6.11,4,VISIT 4,2013-07-17
