STUDYID,DOMAIN,USUBJID,CVSEQ,CVTESTCD,CVTEST,CVORRES,CVORRESU,CVSTRESC,CVSTRESN,CVSTRESU,CVSTAT,CVDTC,CVENDTC,CVDY,CVENDY,CVTPTREF,CVSTINT,CVENINT
ABC,CV,ABC-001-001 ,1,SYSBP,Systolic Blood Pressure,154,mmHg,154,154,mmHg,,1999-06-19T08:45,,,,,,
ABC,CV,ABC-001-001 ,2,SYSBP,Systolic Blood Pressure,156,mmHg,156,156,mmHg,,1999-06-19T08:46,,,,,,
ABC,CV,1003,1,DIABP,Diastolic Blood Pressure,50.94,mmHg,50.94,50.94,mmHg,,2006-09-15,,15,,Dose 3,-PT60M,PT0M
ABC,CV,1003,2,DIABP,Diastolic Blood Pressure,50.68,mmHg,50.68,50.68,mmHg,,2006-09-15,,15,,Dose 3,PT60M,PT120M
ABC,CV,1004,1,DIABP,Diastolic Blood Pressure,50.94,mmHg,50.94,50.94,mmHg,,2006-09-15,,15,,Dose 3,-PT60M,PT0M
ABC,CV,1004,2,DIABP,Diastolic Blood Pressure,50.68,mmHg,50.68,50.68,mmHg,,2006-09-16,,15,,Dose 3,-PT60M,PT0M
