STUDYID,DOMAIN,USUBJID,VISITNUM,VISIT,SVPRESP,SVSTDTC,SVENDTC,SVSTDY,SVENDY,SVUPDES
CDISCPILOT01,SV,CDISC001,1,SCREENING 1,,2012-11-23,2012-11-23,-7,-7,
CDISCPILOT01,SV,CDISC001,2,SCREENING 2,,2012-11-28,2012-11-28,-2,-2,
CDISCPILOT01,SV,CDISC001,3,BASELINE,,2012-11-30,2012-11-30,1,1,
CDISCPILOT01,SV,CDISC001,4,WEEK 2,,2012-12-13,2012-12-13,14,14,
CDISCPILOT01,SV,CDISC001,5,WEEK 4,,2012-12-26,2012-12-26,27,27,
CDISCPILOT01,SV,CDISC001,5.01,WEEK 4: UNSCHEDULED 01,,2012-12-28,2012-12-28,29,29,UNSCHEDULED LABS
CDISCPILOT01,SV,CDISC001,7,WEEK 6,,2013-01-10,2013-01-10,42,42,
CDISCPILOT01,SV,CDISC001,8,WEEK 8,,2013-01-23,2013-01-23,55,55,
CDISCPILOT01,SV,CDISC001,101,EARLY DISCONTINUATION,,2013-02-14,2013-02-14,77,77,
CDISCPILOT01,SV,CDISC001,201,EARLY DISCONTINUATION RETRIEVAL,,2013-05-20,2013-05-20,172,172,
CDISCPILOT01,SV,CDISC002,1,SCREENING 1,,2012-10-30,2012-10-30,-16,-16,
CDISCPILOT01,SV,CDISC002,2,SCREENING 2,,2012-11-14,2012-11-14,-1,-1,
CDISCPILOT01,SV,CDISC002,3,BASELINE,,2012-11-15,2012-11-15,1,1,
CDISCPILOT01,SV,CDISC002,4,WEEK 2,,2012-11-28,2012-11-28,14,14,
CDISCPILOT01,SV,CDISC002,5,WEEK 4,,2012-12-11,2012-12-11,27,27,
CDISCPILOT01,SV,CDISC002,7,WEEK 6,,2012-12-25,2012-12-25,41,41,
CDISCPILOT01,SV,CDISC002,8,WEEK 8,,2013-01-08,2013-01-08,55,55,
CDISCPILOT01,SV,CDISC002,9,WEEK 12,,2013-01-14,2013-01-14,61,61,
CDISCPILOT01,SV,CDISC003,1,SCREENING 1,,2013-08-20,2013-08-20,-9,-9,
CDISCPILOT01,SV,CDISC003,2,SCREENING 2,,2013-08-27,2013-08-27,-2,-2,
CDISCPILOT01,SV,CDISC003,3,BASELINE,,2013-08-29,2013-08-29,1,1,
CDISCPILOT01,SV,CDISC003,4,WEEK 2,,2013-09-15,2013-09-15,18,18,
CDISCPILOT01,SV,CDISC003,5,WEEK 4,,2013-09-24,2013-09-24,27,27,
CDISCPILOT01,SV,CDISC003,7,WEEK 6,,2013-10-08,2013-10-08,41,41,
CDISCPILOT01,SV,CDISC003,8,WEEK 8,,2013-10-22,2013-10-22,55,55,
CDISCPILOT01,SV,CDISC003,8.1,WEEK 8 Unscheduled,,2013-10-22,2013-10-22,55,55,
CDISCPILOT01,SV,CDISC003,8.1,WEEK 8 Unscheduled,,2013-10-22,2013-10-22,55,55,
CDISCPILOT01,SV,CDISC003,9,WEEK 12,,2013-11-05,2013-11-05,69,69,
CDISCPILOT01,SV,CDISC003,101,EARLY DISCONTINUATION,,2013-12-16,2013-12-16,110,110,
CDISCPILOT01,SV,CDISC003,201,EARLY DISCONTINUATION RETRIEVAL,,2014-02-13,2014-02-13,169,169,
