STUDYID,DOMAIN,USUBJID,LBSEQ,LBTESTCD,LBTEST,LBORRES,LBORRESU,LBSTRESC,LBSTRESN,LBSTRESU,LBSTNRLO,LBSTNRHI
123101,LB,ALB,1,ALB,Albumin,NEGATIVE,g/L,3.0,3.0,g/L,5,
123101,LB,Prot,2,ALP,Alkaline Phosphatase,POSITIVE,IU/L,398,398,IU/L,POSITIVE,
123101,LB,Prot,3,ALP,Alkaline Phosphatase,40,IU/L,398,398,IU/L,0,40
123101,LB,Prot,4,ALP,Alkaline Phosphatase,.45,IU/L,398,398,IU/L,10,40
