STUDYID,DOMAIN,USUBJID,LBSEQ,LBTESTCD,LBTEST,LBORRES,LBORRESU,LBSTRESC,LBSTRESN,LBSTRESU,LBORNRLO,LBORNRHI
123101,LB,ALB,1,ALB,Albumin,NEGATIVE,g/L,3.0,3.0,g/L,,5
123101,LB,Prot,2,ALP,Alkaline Phosphatase,POSITIVE,IU/L,398,398,IU/L,,POSITIVE
