dataset,variable,label,type,length
tv,STUDYID,Study Identifier,Char,12
tv,DOMAIN,Domain Abbreviation,Char,2
tv,VISITNUM,Visit Number,Num,8
tv,VISIT,Visit Name,Char,200
tv,ARMCD,Planned Arm Code,Char,8
tv,TVSTRL,Visit Start Rule,Char,200
tv,TVENRL,Visit End Rule,Char,200
sv,STUDYID,Study Identifier,Char,50
sv,DOMAIN,Domain Abbreviation,Char,50
sv,USUBJID,Unique Subject Identifier,Char,50
sv,VISITNUM,Visit Number,Num,8
sv,VISIT,Visit Name,Char,50
sv,EPOCH,Epoch,Char,50
sv,SVSTDTC,Start Date/Time of Observation,Char,50
sv,SVENDTC,End Date/Time of Observation,Char,50
sv,SVSTDY,Study Day of Start of Observation,Num,8
sv,SVENDY,Study Day of End of Observation,Num,8
