STUDYID,RDOMAIN,USUBJID,IDVAR,IDVARVAL,QNAM,QLABEL,QVAL,QORIG,QEVAL
CDISCPILOT01,DM,CDISC008,,,RACE1,Race 1,ASIAN,CRF,
CDISCPILOT01,DM,CDISC008,,,RACE1,Race 1,BLACK OR AFRICAN AMERICAN,CRF,
CDISCPILOT01,DM,CDISC008,,,RACE3,Race 3,WHITE,CRF,
CDISCPILOT01,DM,CDISC008,,,RACE3,Race 3,HAWAIAN,CRF,
