USUBJID,USUBJIDN,SUBJID,NCAXFL,NCAXFN,NCAwXRS,NCAwXRSN,PKSUMXF,PKSUMXFN,METABFL,COHORT,COHORTN,ROUTE,TRTRINT,TRTRINTU,DOSPCTDF,DOSEFRQ,ACYCLE,ACYCLEC,FANLDT,FANLTM,FANLDTM,FANLEDT,FANLETM,FANLEDTM,PCRFTDT,PCRFTTM,PCRFTDTM,PCRFEDT,PCRFETM,PCRFEDTM,NFRLT,AFRLT,NEFRLT,AEFRLT,FRLTU,NRRLT,ARRLT,MRRLT,NERRLT,AERRLT,MERRLT,RRLTU,TMPCTDF,ADOSEDUR,NDOSEDUR,DOSEDURU,AVALU,PCSPEC,PCSTRESC,PCSTRESU,ALLOQ,PCLLOQ,VOLUME,VOLUMEU,SPWEIGHT,SPWEIGHU,PCGRPID,PCSEQ,DOSEA,DOSEU,AVISIT
PROTOCOL-001-001-00137,100100137,137,,,,,,,,a,1,,,,,,1,1,,,,,,,,,,,,,,,,,,,,,,,,,,,,,,,,,,,,,,,,,,,
PROTOCOL-001-001-00137,100100137,137,,,,,,,,a,1,,,,,,1,1,,,,,,,,,,,,,,,,,,,,,,,,,,,,,,,,,,,,,,,,,,,
PROTOCOL-001-001-00137,100100137,137,,,,,,,,a,1,,,,,,2,2,,,,,,,,,,,,,,,,,,,,,,,,,,,,,,,,,,,,,,,,,,,
PROTOCOL-002-001-00237,200100237,237,,,,,,,,a,1,,,,,,1,1,,,,,,,,,,,,,,,,,,,,,,,,,,,,,,,,,,,,,,,,,,,
PROTOCOL-002-001-00237,200100237,237,,,,,,,,a,1,,,,,,2,,,,,,,,,,,,,,,,,,,,,,,,,,,,,,,,,,,,,,,,,,,,
