STUDYID,DOMAIN,USUBJID,AGSEQ,AGTRT,AGPRESP,AGOCCUR,AGSTAT
CDISCPILOT01,AG,CDISC001,1,Buprenorphine,,,
CDISCPILOT01,AG,CDISC001,2,Minims Proxymetacaine,Y,Y,
CDISCPILOT01,AG,CDISC001,3,Meloxicam,Y,,NOT DONE
