STUDYID,DOMAIN,USUBJID,BESEQ,BETERM,BEPRESP,BEOCCUR,BESTAT
CDISCPILOT01,BE,CDISC001,1,Collecting,Y,,NOT DONE
CDISCPILOT01,BE,CDISC001,2,Extracting,Y,Y,
CDISCPILOT01,BE,CDISC001,3,Shipping,Y,N,
CDISCPILOT01,BE,CDISC001,4,Aliquoting,,,
