STUDYID,DOMAIN,RDOMAIN,USUBJID,POOLID,COSEQ,IDVAR,IDVARVAL,COREF,COVAL,COVAL1,COVAL2,COEVAL,VISITNUM,CODTC,CODY
1234,CO,EX,,20,1,EXGRPID,COMBO1,PAGE 320-355,Medicine was administered under supervision of Sub investigator as PI was on leave,,,PRINCIPAL INVESTIGATOR,,,
1234,CO,EX,,,2,EXGRPID,COMBO1,PAGE 320-355,Medicine was administered under supervision of Sub investigator as PI was on leave,,,PRINCIPAL INVESTIGATOR,,,
1234,CO,EX,,,3,EXGRPID,COMBO1,PAGE 320-355,Medicine was administered under supervision of Sub investigator as PI was on leave,,,PRINCIPAL INVESTIGATOR,,,
1234,CO,PE,,,1,VISITNUM,4,,Visit was delayed by a day due to hospital holiday,,,PRINCIPAL INVESTIGATOR,,,
1234,CO,EX,,POOL1,1,,,,,,,,,,
1234,CO,EX,,POOL1,2,,,,,,,,,,
1234,CO,EX,,POOL1,3,,,,,,,,,,
1234,CO,EX,,POOL2,1,,,,,,,,,,
