STUDYID,DOMAIN,USUBJID,DSSEQ,DSGRPID,DSREFID,DSSPID,DSTERM,DSDECOD,DSCAT,EPOCH,DSDTC,DSSTDTC,DSDY,DSSTDY
CDISC-TEST,DS,S001,1,,,,COMPLETED,COMPLETED,DISPOSITION EVENT,TREATMENT,,,,
CDISC-TEST,DS,S001,2,,,,COMPLETED,COMPLETED,DISPOSITION EVENT,FOLLOW-UP,,,,
