STUDYID,DOMAIN,USUBJID,VISITNUM,VISIT,EPOCH,SVSTDTC,SVENDTC,SVSTDY,SVENDY,SVUPDES
CDISCPILOT01,SV,CDISC001,1,SCREENING 1,SCREENING,2018-06-29,2018-07-06,-14,-7,
CDISCPILOT01,SV,CDISC001,2,SCREENING 2,SCREENING,2018-07-06,2018-07-13,-7,-1,
CDISCPILOT01,SV,CDISC001,3,BASELINE,OPEN LABEL TREATMENT,2018-07-14,2018-07-14,1,1,
CDISCPILOT01,SV,CDISC001,4,WEEK 2,OPEN LABEL TREATMENT,2018-07-28,2018-07-28,7,7,
,,,4.1,,OPEN LABEL TREATMENT,2018-07-30,2018-07-30,9,9,Evaluation of AE
CDISCPILOT01,SV,CDISC001,5,WEEK 4,OPEN LABEL TREATMENT,2018-08-25,2018-08-25,14,14,
CDISCPILOT01,SV,CDISC001,7,WEEK 6,OPEN LABEL TREATMENT,2018-09-08,2018-09-08,28,28,
CDISCPILOT01,SV,CDISC001,8,WEEK 8,OPEN LABEL TREATMENT,2018-09-22,2018-09-22,35,35,
CDISCPILOT01,SV,CDISC001,9,WEEK 12,OPEN LABEL TREATMENT,2018-10-20,2018-10-20,42,42,
CDISCPILOT01,SV,CDISC001,10,WEEK 16,OPEN LABEL TREATMENT,2018-11-17,2018-11-17,49,49,
CDISCPILOT01,SV,CDISC001,11,WEEK 20,OPEN LABEL TREATMENT,2018-12-15,2018-12-15,56,56,
CDISCPILOT01,SV,CDISC001,12,WEEK 24,OPEN LABEL TREATMENT,2019-01-13,2019-01-13,63,63,
CDISCPILOT01,SV,CDISC001,13,WEEK 26,OPEN LABEL TREATMENT,2019-02-10,2019-02-10,70,70,
CDISCPILOT01,SV,CDISC002,1,SCREENING 1,SCREENING,2018-06-29,2018-07-06,-14,-7,
CDISCPILOT01,SV,CDISC002,2,SCREENING 2,SCREENING,2018-07-06,2018-07-13,-7,-1,
CDISCPILOT01,SV,CDISC002,3,BASELINE,OPEN LABEL TREATMENT,2018-07-14,2018-07-14,1,1,
CDISCPILOT01,SV,CDISC002,4,WEEK 2,OPEN LABEL TREATMENT,2018-07-28,2018-07-28,7,7,
CDISCPILOT01,SV,CDISC002,5,WEEK 4,OPEN LABEL TREATMENT,2018-08-25,2018-08-25,9,9,
CDISCPILOT01,SV,CDISC002,7,WEEK 6,OPEN LABEL TREATMENT,2018-09-08,2018-09-08,14,14,
CDISCPILOT01,SV,CDISC002,8,WEEK 8,OPEN LABEL TREATMENT,2018-09-22,2018-09-22,28,28,
