STUDYID,DOMAIN,USUBJID,SUBJID,RFSTDTC,RFENDTC,RFXSTDTC,RFXENDTC,RFCSTDTC,RFCENDTC,RFICDTC,RFPENDTC,DTHDTC,DTHFL,SITEID,INVID,INVNAM,BRTHDTC,AGEU,AGETXT,SEX,RACE,ETHNIC,ARMCD,ARM,ACTARMCD,ACTARM,ARMNRS,ACTARMUD,COUNTRY,DMDTC,DMDY
TEST-1,DM,001,001,2022-03-20,,,,,,,,,,,,,2008-12-01,YEARS,3-4,,,,,,,,,,,,
TEST-1,DM,002,002,2022-03-20,,,,,,,,,,,,,,YEARS,20-30,,,,,,,,,,,,
TEST-1,DM,003,003,2022-03-25,,,,,,,,,,,,,,centuries,2,,,,,,,,,,,,
TEST-1,DM,004,004,2022-03-26,,,,,,,,,,,,,,WEEKS,several,,,,,,,,,,,,
TEST-1,DM,005,005,2022-03-26,,,,,,,,,,,,,,MONTHS,60-70,,,,,,,,,,,,
