STUDYID,DOMAIN,USUBJID,LBSEQ,LBTESTCD,LBTEST,LBCAT,LBORRES,LBORRESU,LBORNRLO,LBORNRHI,LBSTRESC,LBSTRESN,LBSTRESU,LBSTNRLO,LBSTNRHI,LBNRIND,LBSTAT,LBLOBXFL,VISITNUM,VISIT,EPOCH,LBDTC,LBDY
CDISCPILOT01,LB,CDISC001,1,ALB,Albumin,CHEMISTRY,3.9,g/dL,3.5,4.6,39,39,g/L,35,46,NORMAL,,Y,1,SCREENING 1,SCREENING,2012-11-23T11:20,-7
CDISCPILOT01,LB,CDISC001,2,ALP,Alkaline Phosphatase,CHEMISTRY,,U/L,35,115,93,93,U/L,35,115,NORMAL,NOT DONE,Y,1,SCREENING 1,SCREENING,2012-11-23T11:20,-7
CDISCPILOT01,LB,CDISC001,3,ALB,Albumin,CHEMISTRY,4,g/dL,3.5,4.6,39,39,g/L,35,46,NORMAL,,Y,1,SCREENING 1,SCREENING,2012-11-23T11:20,-7
