STUDYID,DOMAIN,USUBJID,POOLID,VSSEQ,VSTESTCD,VSTEST,VSPOS,VSORRES,VSORRESU,VSSTRESC,VSSTRESN,VSSTRESU,VSSTAT,VSLOC
CDISCPILOT01,VS,,POOL1,1,DIABP,Diastolic Blood Pressure,STANDING,71,mmHg,71,71,mmHg,,
CDISCPILOT01,VS,,POOL1,2,DIABP,Diastolic Blood Pressure,STANDING,71,mmHg,71,71,mmHg,,
CDISCPILOT01,VS,,POOL1,3,DIABP,Diastolic Blood Pressure,STANDING,83,mmHg,83,83,mmHg,,
CDISCPILOT01,VS,,POOL2,4,DIABP,Diastolic Blood Pressure,STANDING,79,mmHg,79,79,mmHg,,
CDISCPILOT01,VS,,POOL2,6,DIABP,Diastolic Blood Pressure,SUPINE,77,mmHg,77,77,mmHg,,
CDISCPILOT01,VS,,POOL2,7,DIABP,Diastolic Blood Pressure,STANDING,71,mmHg,71,71,mmHg,,
