STUDYID,DOMAIN,USUBJID,POOLDID,PCSEQ,PCGRPID,PCREFID,PCSPID,PCTESTCD,PCTEST,PCCAT,PCSCAT,PCORRES,PCORRESU,PCSTRESC,PCSTRESN,PCSTRESU,PCSTAT,PCREASND,PCNAM,PCSPEC,PCSPCCND ,PCSPCUFL ,PCMETHOD,PCBLFL,PCFAST,PCDRVFL ,PCLLOQ ,PCEXCLFL,PCREASEX ,VISITDY,PCDTC,PCENDTC,PCDY,PCENDY,PCNOMDY,PCNOMLBL ,PCTPT,PCTPTNUM,PCELTM,PCTPTREF,PCRFTDTC ,PCEVLINT 
1234,PC,123-001,,1,Day1,A554134-10 ,,DRGA_MET ,DRUG a METABOLITE ,ANALYTE ,,<0.1,ng/mL ,BLQ,,ng/mL ,,,,PLASMA,,,,Y,,,,,,,2001-02-01T07:45 ,,1,,1,Day 1,PREDOSE,0,-PT15M ,Day 1 Dose,2001-02-01T08:00 ,
1234,PC,123-001,,2,Day1,A554134-10 ,,DRGA_PAR ,DRUG a PARENT ,ANALYTE ,,<0.1,ng/mL ,BLQ,,ng/mL ,,,,PLASMA,,,,Y,,,,,,,2001-02-01T07:45 ,,1,,1,Day 1,PREDOSE,0,-PT15M ,Day 1 Dose,2001-02-01T08:00 ,
1234,PC,123-001,,3,Day1,A554134-11 ,,DRGA_MET ,DRUG a METABOLITE ,ANALYTE ,,<2,ng/mL ,BLQ,,ng/mL ,,,,URINE,,,,Y,,,,,,,2001-01-31T19:45 ,2001-02-01T07:45 ,1,,1,Day 1,PREDOSE,0,-PT15M ,Day 1 Dose,2001-02-01T08:00 ,PT12H
1234,PC,123-001,,4,Day1,A554134-11 ,,DRGA_PAR ,DRUG a PARENT ,ANALYTE ,,<2,ng/mL ,BLQ,,ng/mL ,,,,URINE,,,,Y,,,,,,,2001-01-31T19:45 ,2001-02-01T07:45 ,1,,1,Day 1,PREDOSE,0,-PT15M ,Day 1 Dose,2001-02-01T08:00 ,PT12H
1234,PC,123-001,,5,Day1,A554134-11 ,,VOLUME ,VOLUME ,ANALYTE ,,350,mL,350,350,mL,,,,URINE,,,,Y,,,,,,,2001-01-31T19:45 ,2001-02-01T07:45 ,1,,1,Day 1,PREDOSE,0,-PT15M ,Day 1 Dose,2001-02-01T08:00 ,PT12H
1234,PC,123-001,,6,Day1,A554134-11 ,,PH ,PH ,ANALYTE ,,5.5,,5.5,5.5,,,,,URINE,,,,Y,,,,,,,2001-01-31T19:45 ,2001-02-01T07:45 ,1,,1,Day 1,PREDOSE,0,-PT15M ,Day 1 Dose,2001-02-01T08:00 ,PT12H
1234,PC,123-001,,7,Day1,A554134-12 ,,DRGA_MET ,DRUG a METABOLITE ,ANALYTE ,,5.4,ng/mL ,5.4,5.4,ng/mL ,,,,PLASMA,,,,,,,,,,,2001-02-01T09:30 ,,1,,1,Day 1,1H30M,1.5,PT1H30M ,Day 1 Dose,2001-02-01T08:00 ,
1234,PC,123-001,,8,Day1,A554134-12 ,,DRGA_PAR ,DRUG a PARENT ,ANALYTE ,,4.74,ng/mL ,4.74,4.74,ng/mL ,,,,PLASMA,,,,,,,,,,,2001-02-01T09:30 ,,1,,1,Day 1,1H30M,1.5,PT1H30M ,Day 1 Dose,2001-02-01T08:00 ,
1234,PC,123-001,,9,Day1,A554134-13,,DRGA_MET ,DRUG a METABOLITE ,ANALYTE ,,5.44,ng/mL ,5.44,5.44,ng/mL ,,,,PLASMA,,,,,,,,,,,2001-02-01T14:00 ,,1,,1,Day 1,6H,6,PT6H00M ,Day 1 Dose,2001-02-01T08:00 ,
1234,PC,123-001,,10,Day1,A554134-13,,DRGA_PAR ,DRUG a PARENT ,ANALYTE ,,1.09,ng/mL ,1.09,1.09,ng/mL ,,,,PLASMA,,,,,,,,,,,2001-02-01T14:00 ,,1,,1,Day 1,6H,6,PT6H,Day 1 Dose,2001-02-01T08:00 ,
1234,PC,123-001,,11,Day1,A554134-14,,DRGA_MET ,DRUG a METABOLITE ,ANALYTE ,,<0.1,ng/mL ,BLQ,,ng/mL ,,,,PLASMA,,,,,,,,,,,2001-02-02T08:00 ,,2,,1,Day 1,24H,24,PT24H,Day 1 Dose,2001-02-01T08:00 ,
1234,PC,123-001,,12,Day1,A554134-14,,DRGA_PAR ,DRUG a PARENT ,ANALYTE ,,<0.1,ng/mL ,BLQ,,ng/mL ,,,,PLASMA,,,,,,,,,,,2001-02-02T08:00 ,,2,,1,Day 1,24H,24,PT24H,Day 1 Dose,2001-02-01T08:00 ,
1234,PC,123-001,,13,Day11,A554134-15,,DRGA_MET ,DRUG a METABOLITE ,ANALYTE ,,3.41,ng/mL ,3.41,3.41,ng/mL ,,,,PLASMA,,,,,,,,,,,2001-02-11T07:45 ,,11,,11,Day 11,PREDOSE,0,-PT15M ,Day 11 Dose,2001-02-01T08:00 ,
1234,PC,123-001,,14,Day11,A554134-15,,DRGA_PAR ,DRUG a PARENT ,ANALYTE ,,>100,ng/mL ,ALQ,,ng/mL ,,,,PLASMA,,,,,,,,,,,2001-02-11T07:45 ,,11,,11,Day 11,PREDOSE,0,-PT15M ,Day 11 Dose,2001-02-01T08:00 ,
1234,PC,123-002,,15,Day11,A554134-16,,DRGA_MET ,DRUG a METABOLITE ,ANALYTE ,,8.74,ng/mL ,8.74,8.74,ng/mL ,,,,PLASMA,,,,,,,,Y,,,2001-02-11T11:30 ,,11,,11,Day 11,1H30M,1.5,PT1H30M ,Day 11 Dose,2001-02-01T08:00 ,
1234,PC,123-002,,16,Day11,A554134-16,,DRGA_PAR ,DRUG a PARENT ,ANALYTE ,,4.2,ng/mL ,4.2,4.2,ng/mL ,,,,PLASMA,,,,,,,,Y,,,2001-02-11T11:30 ,,11,,11,Day 11,1H30M,1.5,PT1H30M ,Day 11 Dose,2001-02-01T08:00 ,
