STUDYID,DOMAIN,USUBJID,SUBJID,RFSTDTC,RFENDTC,RFXSTDTC,RFXENDTC,RFCSTDTC,RFCENDTC,RFICDTC,RFPENDTC,DTHDTC,DTHFL,SITEID,INVID,INVNAM,BRTHDTC,AGE,AGEU,AGETXT,SEX,RACE,ETHNIC,ARMCD,ARM,ACTARMCD,ACTARM,ARMNRS,ACTARMUD,COUNTRY,DMDTC,DMDY
TEST-1,DM,001,001,2022-03-20,,,,,,,,,,,,,,,,11-20,,,,,,,,,,,,
TEST-1,DM,002,002,2022-03-20,,,,,,,,,,,,,,,,22-30,,,,,,,,,,,,
TEST-1,DM,003,003,2022-03-25,,,,,,,,,,,,,,,,50-21,,,,,,,,,,,,
TEST-1,DM,004,004,2022-03-26,,,,,,,,,,,,,,,,3-4,,,,,,,,,,,,
TEST-1,DM,005,005,2022-03-26,,,,,,,,,,,,,,,,3-3,,,,,,,,,,,,
TEST-1,DM,006,006,2022-03-27,,,,,,,,,,,,,,,,18-21,,,,,,,,,,,,
,,,,,,,,,,,,,,,,,,23,year,,,,,,,,,,,,,
