{
  "rule": {
    "Authority": {
      "Organization": "CDISC"
    },
    "Check": {
      "all": [
        {
          "name": "--ENTPT",
          "operator": "non_empty"
        },
        {
          "name": "--ENRTPT",
          "operator": "empty"
        }
      ]
    },
    "Citations": [
      {
        "Document": "Model v2.0",
        "Item": "--ENTPT",
        "Section": "Timing",
        "Cited_Guidance": "The description or date and/or time of a time point that acts as a fixed reference for characterizing the end of an observation. This is the sponsor-defined reference point referred to by --ENRTPT."
      },
      {
        "Document": "Model v1.7",
        "Item": "Table 2.2.5.1 --ENTPT",
        "Section": "2.2.5 Timing Variables for All Classes",
        "Cited_Guidance": "Identifies the end of the observation as being before or after the sponsor-defined reference time point defined by variable --ENTPT."
      },
      {
        "Document": "Model v1.4",
        "Item": "Specification",
        "Section": "2.2.5 Timing Variables for All Classes",
        "Cited_Guidance": "(--ENRTPT) Identifies the end of the observation as being before or after the sponsor-defined reference time point defined by variable --ENTPT."
      }
    ],
    "Core": {
      "Id": "CDISC.SDTMIG.CG0045",
      "Version": "1"
    },
    "Description": "Raise an error when --ENTPT is completed and --ENRTPT is not completed.",
    "Outcome": {
      "Message": "--ENTPT is completed, but --ENRTPT is not completed.",
      "Output_Variables": [
        "--ENRTPT",
        "--ENTPT"
      ]
    },
    "References": [
      {
        "Origin": "SDTM and SDTMIG Conformance Rules",
        "Version": "2.0",
        "Rule_Identifier": {
          "Id": "CG0045",
          "Version": "1"
        }
      }
    ],
    "Scopes": {
      "Classes": {
        "Include": [
          "All"
        ]
      },
      "Domains": {
        "Include": [
          "All"
        ]
      },
      "Standards": [
        {
          "Name": "SDTMIG",
          "Version": "3.4"
        },
        {
          "Name": "SDTMIG",
          "Version": "3.3"
        },
        {
          "Name": "SDTMIG",
          "Version": "3.2"
        }
      ]
    },
    "Sensitivity": "Record",
    "Severity": "Error",
    "Rule_Type": "Consistency"
  },
  "datasets": [
    {
      "filename": "cm.xpt",
      "label": "Concomitant/Prior Medications",
      "domain": "CM",
      "variables": [
        {
          "name": "STUDYID",
          "label": "Study Identifier",
          "type": "Char",
          "length": 12
        },
        {
          "name": "DOMAIN",
          "label": "Domain Abbreviation",
          "type": "Char",
          "length": 2
        },
        {
          "name": "USUBJID",
          "label": "Unique Subject Identifier",
          "type": "Char",
          "length": 8
        },
        {
          "name": "CMSEQ",
          "label": "Sequence Number",
          "type": "Num",
          "length": 8
        },
        {
          "name": "CMTRT",
          "label": "Reported Name of Drug, Med, or Therapy",
          "type": "Char",
          "length": 200
        },
        {
          "name": "CMINDC",
          "label": "Indication",
          "type": "Char",
          "length": 200
        },
        {
          "name": "CMDOSE",
          "label": "Dose per Administration",
          "type": "Num",
          "length": 8
        },
        {
          "name": "CMDOSU",
          "label": "Dose Units",
          "type": "Char",
          "length": 6
        },
        {
          "name": "CMDOSFRQ",
          "label": "Dosing Frequency per Interval",
          "type": "Char",
          "length": 3
        },
        {
          "name": "CMROUTE",
          "label": "Route of Administration",
          "type": "Char",
          "length": 24
        },
        {
          "name": "EPOCH",
          "label": "Epoch",
          "type": "Char",
          "length": 9
        },
        {
          "name": "CMSTDTC",
          "label": "Start Date/Time of Medication",
          "type": "Char",
          "length": 10
        },
        {
          "name": "CMENDTC",
          "label": "End Date/Time of Medication",
          "type": "Char",
          "length": 10
        },
        {
          "name": "CMSTDY",
          "label": "Study Day of Start of Medication",
          "type": "Num",
          "length": 8
        },
        {
          "name": "CMENDY",
          "label": "Study Day of End of Medication",
          "type": "Num",
          "length": 8
        },
        {
          "name": "CMENRTPT",
          "label": "End Relative to Reference Time Point",
          "type": "Char",
          "length": 7
        },
        {
          "name": "CMENTPT",
          "label": "End Reference Time Point",
          "type": "Char",
          "length": 10
        }
      ],
      "records": {
        "STUDYID": [
          "CDISCPILOT01",
          "CDISCPILOT01",
          "CDISCPILOT01",
          "CDISCPILOT01",
          "CDISCPILOT01",
          "CDISCPILOT01",
          "CDISCPILOT01",
          "CDISCPILOT01",
          "CDISCPILOT01",
          "CDISCPILOT01"
        ],
        "DOMAIN": [
          "CM",
          "CM",
          "CM",
          "CM",
          "CM",
          "CM",
          "CM",
          "CM",
          "CM",
          "CM"
        ],
        "USUBJID": [
          "CDISC004",
          "CDISC004",
          "CDISC007",
          "CDISC007",
          "CDISC007",
          "CDISC007",
          "CDISC007",
          "CDISC007",
          "CDISC011",
          "CDISC011"
        ],
        "CMSEQ": [
          1,
          2,
          1,
          2,
          3,
          4,
          5,
          6,
          1,
          2
        ],
        "CMTRT": [
          "VITAMIN C",
          "VITAMIN E",
          "METAMUCIL",
          "ADVIL",
          "DOCUSATE SODIUM",
          "BENADRYL",
          "PREDNISONE",
          "TEMOVATE",
          "MOTRIN",
          "PRINIVIL"
        ],
        "CMINDC": [
          "PROPHYLAXIS OR NON-THERAPEUTIC USE",
          "PROPHYLAXIS OR NON-THERAPEUTIC USE",
          "PROPHYLAXIS OR NON-THERAPEUTIC USE",
          "PROPHYLAXIS OR NON-THERAPEUTIC USE",
          "PROPHYLAXIS OR NON-THERAPEUTIC USE",
          "PROPHYLAXIS OR NON-THERAPEUTIC USE",
          "PROPHYLAXIS OR NON-THERAPEUTIC USE",
          "PROPHYLAXIS OR NON-THERAPEUTIC USE",
          "PROPHYLAXIS OR NON-THERAPEUTIC USE",
          "PROPHYLAXIS OR NON-THERAPEUTIC USE"
        ],
        "CMDOSE": [
          500,
          400,
          3,
          200,
          100,
          75,
          20,
          1,
          400,
          10
        ],
        "CMDOSU": [
          "mg",
          "mg",
          "mg",
          "mg",
          "mg",
          "mg",
          "mg",
          "TABLET",
          "mg",
          "mg"
        ],
        "CMDOSFRQ": [
          "",
          "",
          "",
          "",
          "",
          "",
          "",
          "",
          "",
          ""
        ],
        "CMROUTE": [
          "ORAL",
          "ORAL",
          "ORAL",
          "ORAL",
          "ORAL",
          "ORAL",
          "ORAL",
          "TOPICAL",
          "ORAL",
          "ORAL"
        ],
        "EPOCH": [
          "SCREENING",
          "SCREENING",
          "SCREENING",
          "SCREENING",
          "SCREENING",
          "SCREENING",
          "SCREENING",
          "SCREENING",
          "SCREENING",
          "SCREENING"
        ],
        "CMSTDTC": [
          "1983",
          "1983",
          "2009",
          "2011",
          "2012-11",
          "2013-02-18",
          "2013-02-18",
          "2013-02-18",
          "1998-10",
          "2011-07-15"
        ],
        "CMENDTC": [
          "",
          "",
          "",
          "",
          "2013-01-05",
          "2013-05-10",
          "2013-05-10",
          "2013-02-20",
          "2013-06-05",
          "2013-06-05"
        ],
        "CMSTDY": [
          null,
          null,
          null,
          null,
          null,
          45,
          45,
          45,
          null,
          -511
        ],
        "CMENDY": [
          null,
          null,
          null,
          null,
          1,
          126,
          126,
          47,
          181,
          181
        ],
        "CMENRTPT": [
          "ONGOING",
          "ONGOING",
          "ONGOING",
          "ONGOING",
          "",
          "ONGOING",
          "",
          "",
          "",
          ""
        ],
        "CMENTPT": [
          "2014-03-18",
          "2014-03-18",
          "2013-06-20",
          "2013-06-20",
          "",
          "",
          "",
          "",
          "",
          ""
        ]
      }
    }
  ]
}