STUDYID,RDOMAIN,USUBJID,IDVAR,IDVARVAL,RELTYPE,RELID
CDISC-TEST,LB,CDISC-TEST-001,LBSEQ,1,,REL1
CDISC-TEST,LB,CDISC-TEST-001,LBSEQ,10,,REL1
CDISC-TEST,LB,CDISC-TEST-001,LBSEQ,11,,REL2
CDISC-TEST,LB,CDISC-TEST-001,LBSEQ,12,,REL2
CDISC-TEST,LB,CDISC-TEST-001,LBSEQ,13,,REL2
CDISC-TEST,LB,CDISC-TEST-002,LBSEQ,1,,REL3
CDISC-TEST,LB,CDISC-TEST-002,LBSEQ,2,,REL3
CDISC-TEST,LB,CDISC-TEST-002,LBSEQ,3,,REL4
CDISC-TEST,LB,CDISC-TEST-002,LBSEQ,4,,REL4
CDISC-TEST,LB,CDISC-TEST-002,LBSEQ,5,,REL4
CDISC-TEST,LB,,,,ONE,
CDISC-TEST,AE,,,,MANY,
