[
  {
    "filename": "lb.xpt",
    "label": "Laboratory Test Results",
    "domain": "LB",
    "variables": [
      {
        "name": "STUDYID",
        "label": "Study Identifier",
        "type": "Char",
        "length": 50
      },
      {
        "name": "DOMAIN",
        "label": "Domain Abbreviation",
        "type": "Char",
        "length": 50
      },
      {
        "name": "USUBJID",
        "label": "Unique Subject Identifier",
        "type": "Char",
        "length": 50
      },
      {
        "name": "LBSEQ",
        "label": "Sequence Number",
        "type": "Num",
        "length": 8
      },
      {
        "name": "LBGRPID",
        "label": "Group ID",
        "type": "Char",
        "length": 50
      },
      {
        "name": "LBTESTCD",
        "label": "Lab Test or Examination Short Name",
        "type": "Char",
        "length": 50
      },
      {
        "name": "LBTEST",
        "label": "Lab Test or Examination Name",
        "type": "Char",
        "length": 50
      },
      {
        "name": "LBTSTCND",
        "label": "Test Condition",
        "type": "Char",
        "length": 50
      },
      {
        "name": "LBCAT",
        "label": "Category for Lab Test",
        "type": "Char",
        "length": 50
      },
      {
        "name": "LBSCAT",
        "label": "Subcategory for Lab Test",
        "type": "Char",
        "length": 50
      },
      {
        "name": "LBORRES",
        "label": "Result or Finding in Original Units",
        "type": "Char",
        "length": 50
      },
      {
        "name": "LBORRESU",
        "label": "Original Units",
        "type": "Char",
        "length": 50
      },
      {
        "name": "LBRESSCL",
        "label": "Result Scale",
        "type": "Char",
        "length": 50
      },
      {
        "name": "LBRESTYP",
        "label": "Result Type",
        "type": "Char",
        "length": 50
      },
      {
        "name": "LBCOLSRT",
        "label": "Collected Summary Result Type",
        "type": "Char",
        "length": 50
      },
      {
        "name": "LBORNRLO",
        "label": "Reference Range Lower Limit in Orig Unit",
        "type": "Char",
        "length": 50
      },
      {
        "name": "LBORNRHI",
        "label": "Reference Range Upper Limit in Orig Unit",
        "type": "Char",
        "length": 50
      },
      {
        "name": "LBLLOD",
        "label": "Lower Limit of Detection",
        "type": "Char",
        "length": 50
      },
      {
        "name": "LBSTRESC",
        "label": "Character Result/Finding in Std Format",
        "type": "Char",
        "length": 50
      },
      {
        "name": "LBSTRESN",
        "label": "Numeric Result/Finding in Standard Units",
        "type": "Num",
        "length": 8
      },
      {
        "name": "LBSTRESU",
        "label": "Standard Units",
        "type": "Char",
        "length": 50
      },
      {
        "name": "LBSTNRLO",
        "label": "Reference Range Lower Limit-Std Units",
        "type": "Num",
        "length": 8
      },
      {
        "name": "LBSTNRHI",
        "label": "Reference Range Upper Limit-Std Units",
        "type": "Num",
        "length": 8
      },
      {
        "name": "LBSTNRC",
        "label": "Reference Range for Char Rslt-Std Units",
        "type": "Char",
        "length": 50
      },
      {
        "name": "LBNRIND",
        "label": "Reference Range Indicator",
        "type": "Char",
        "length": 50
      },
      {
        "name": "LBSTAT",
        "label": "Completion Status",
        "type": "Char",
        "length": 50
      },
      {
        "name": "LBREASND",
        "label": "Reason Test Not Done",
        "type": "Char",
        "length": 50
      },
      {
        "name": "LBLOINC",
        "label": "LOINC Code",
        "type": "Char",
        "length": 50
      },
      {
        "name": "LBSPEC",
        "label": "Specimen Type",
        "type": "Char",
        "length": 50
      },
      {
        "name": "LBMETHOD",
        "label": "Method of Test or Examination",
        "type": "Char",
        "length": 50
      },
      {
        "name": "LBTMTHSN",
        "label": "Test Method Sensitivity",
        "type": "Char",
        "length": 50
      },
      {
        "name": "LBLOBXFL",
        "label": "Last Observation Before Exposure Flag",
        "type": "Char",
        "length": 50
      },
      {
        "name": "LBFAST",
        "label": "Fasting Status",
        "type": "Char",
        "length": 50
      },
      {
        "name": "LBDRVFL",
        "label": "Derived Flag",
        "type": "Char",
        "length": 50
      },
      {
        "name": "LBCLSIG",
        "label": "Clinically Significant, Collected",
        "type": "Char",
        "length": 50
      },
      {
        "name": "VISITNUM",
        "label": "Visit Number",
        "type": "Num",
        "length": 8
      },
      {
        "name": "VISIT",
        "label": "Visit Name",
        "type": "Char",
        "length": 50
      },
      {
        "name": "LBDTC",
        "label": "Date/Time of Specimen Collection",
        "type": "Char",
        "length": 50
      },
      {
        "name": "LBPTFL",
        "label": "Point in Time Flag",
        "type": "Char",
        "length": 50
      },
      {
        "name": "LBPDUR",
        "label": "Planned Duration",
        "type": "Char",
        "length": 50
      }
    ],
    "records": {
      "STUDYID": [
        "ABC123",
        "ABC123",
        "ABC123",
        "ABC123",
        "ABC123",
        "ABC123",
        "ABC123",
        "ABC123",
        "ABC123",
        "ABC123",
        "ABC123",
        "ABC123",
        "ABC123",
        "ABC123",
        "ABC123",
        "ABC123",
        "ABC123",
        "ABC123"
      ],
      "DOMAIN": [
        "LB",
        "LB",
        "LB",
        "LB",
        "LB",
        "LB",
        "LB",
        "LB",
        "LB",
        "LB",
        "LB",
        "LB",
        "LB",
        "LB",
        "LB",
        "LB",
        "LB",
        "LB"
      ],
      "USUBJID": [
        "ABC12301001",
        "ABC12301001",
        "ABC12301001",
        "ABC12301001",
        "ABC12301001",
        "ABC12301001",
        "ABC12301001",
        "ABC12301001",
        "ABC12301001",
        "ABC12301001",
        "ABC12301001",
        "ABC12301001",
        "ABC12301001",
        "ABC12301001",
        "ABC12301001",
        "ABC12301001",
        "ABC12301001",
        "ABC12301001"
      ],
      "LBSEQ": [
        1,
        2,
        3,
        4,
        5,
        6,
        7,
        8,
        9,
        10,
        11,
        12,
        13,
        14,
        15,
        16,
        17,
        18
      ],
      "LBGRPID": [
        "",
        "A",
        "A",
        "A",
        "A",
        "",
        "",
        "",
        "",
        "",
        "",
        "",
        "",
        "",
        "",
        "",
        "",
        ""
      ],
      "LBTESTCD": [
        "ALB",
        "ALP",
        "ALP",
        "ALP",
        "ALP",
        "CRP",
        "CRYOGLBN",
        "PSA",
        "PROT",
        "PLATAGGR",
        "WBC",
        "LYMLE",
        "NEUT",
        "PH",
        "ALB",
        "CHOL",
        "WBC",
        "PROT"
      ],
      "LBTEST": [
        "Albumin",
        "Alkaline Phosphatase",
        "Alkaline Phosphatase",
        "Alkaline Phosphatase",
        "Alkaline Phosphatase",
        "C Reactive Protein",
        "Cryoglobulin",
        "Prostate Specific Antigen",
        "Protein",
        "Platelet Aggregation",
        "Leukocytes",
        "Lymphocytes/Leukocytes",
        "Neutrophils",
        "pH",
        "Albumin",
        "Cholesterol",
        "Leukocytes",
        "Protein"
      ],
      "LBTSTCND": [
        "",
        "",
        "",
        "",
        "",
        "",
        "1D COLD INCUBATION",
        "",
        "",
        "COLLAGEN INDUCED",
        "",
        "",
        "",
        "",
        "",
        "",
        "",
        ""
      ],
      "LBCAT": [
        "CHEMISTRY",
        "CHEMISTRY",
        "CHEMISTRY",
        "CHEMISTRY",
        "CHEMISTRY",
        "CHEMISTRY",
        "CHEMISTRY",
        "CHEMISTRY",
        "CHEMISTRY",
        "COAGULATION",
        "HEMATOLOGY",
        "HEMATOLOGY",
        "HEMATOLOGY",
        "URINALYSIS",
        "CHEMISTRY",
        "CHEMISTRY",
        "HEMATOLOGY",
        "URINALYSIS"
      ],
      "LBSCAT": [
        "",
        "",
        "",
        "",
        "",
        "",
        "",
        "",
        "",
        "",
        "",
        "DIFFERENTIAL",
        "DIFFERENTIAL",
        "",
        "",
        "",
        "",
        ""
      ],
      "LBORRES": [
        "30",
        "398",
        "350",
        "",
        "",
        "2.5",
        "ABSENT",
        "3.3",
        "200",
        "NORMAL",
        "5.9",
        "6.7",
        "5.1",
        "7.5",
        "",
        "229",
        "5.9",
        "MODERATE"
      ],
      "LBORRESU": [
        "g/L",
        "IU/L",
        "IU/L",
        "",
        "",
        "mg/L",
        "",
        "ug/L",
        "g/L",
        "",
        "10^9/L",
        "%",
        "10^9/L",
        "",
        "",
        "mg/dL",
        "10^9/L",
        ""
      ],
      "LBRESSCL": [
        "QUANTITATIVE",
        "QUANTITATIVE",
        "QUANTITATIVE",
        "QUANTITATIVE",
        "QUANTITATIVE",
        "QUANTITATIVE",
        "ORDINAL",
        "QUANTITATIVE",
        "QUANTITATIVE",
        "ORDINAL",
        "QUANTITATIVE",
        "QUANTITATIVE",
        "QUANTITATIVE",
        "QUANTITATIVE",
        "QUANTITATIVE",
        "QUANTITATIVE",
        "QUANTITATIVE",
        "ORDINAL"
      ],
      "LBRESTYP": [
        "MASS CONCENTRATION",
        "CATALYTIC CONCENTRATION",
        "CATALYTIC CONCENTRATION",
        "CATALYTIC CONCENTRATION",
        "CATALYTIC CONCENTRATION",
        "MASS CONCENTRATION",
        "PRESENCE OR THRESHOLD",
        "MASS CONCENTRATION",
        "MASS CONCENTRATION",
        "PRESENCE OR THRESHOLD",
        "NUMBER CONCENTRATION",
        "NUMBER FRACTION",
        "NUMBER CONCENTRATION",
        "LOG SUBSTANCE CONCENTRATION",
        "MASS CONCENTRATION",
        "MASS CONCENTRATION",
        "NUMBER CONCENTRATION",
        "PRESENCE OR THRESHOLD"
      ],
      "LBCOLSRT": [
        "",
        "",
        "",
        "MEAN, ARITHMETIC",
        "",
        "",
        "",
        "",
        "",
        "",
        "",
        "",
        "",
        "",
        "",
        "",
        "",
        ""
      ],
      "LBORNRLO": [
        "35",
        "40",
        "40",
        "",
        "",
        "0.5",
        "",
        "0",
        "",
        "",
        "4",
        "25",
        "2",
        "5",
        "",
        "0",
        "4",
        ""
      ],
      "LBORNRHI": [
        "50",
        "160",
        "160",
        "",
        "",
        "10",
        "",
        "2.5",
        "",
        "",
        "11",
        "40",
        "8",
        "9",
        "",
        "<200",
        "11",
        ""
      ],
      "LBLLOD": [
        "",
        "",
        "",
        "",
        "",
        "",
        "",
        "Detection limit <=0.01 ng/mL",
        "",
        "",
        "",
        "",
        "",
        "",
        "",
        "",
        "",
        ""
      ],
      "LBSTRESC": [
        "3",
        "398",
        "350",
        "374",
        "398",
        "2.5",
        "ABSENT",
        "3.3",
        "200",
        "NORMAL",
        "5.9",
        "6.7",
        "5.1",
        "7.5",
        "",
        "229",
        "5.9",
        "MODERATE"
      ],
      "LBSTRESN": [
        3,
        398,
        350,
        374,
        398,
        2.5,
        null,
        3.3,
        200,
        null,
        5.9,
        6.7,
        5.1,
        null,
        null,
        229,
        5.9,
        null
      ],
      "LBSTRESU": [
        "g/dL",
        "IU/L",
        "IU/L",
        "IU/L",
        "IU/L",
        "mg/L",
        "",
        "ug/L",
        "g/L",
        "",
        "10^9/L",
        "%",
        "10^9/L",
        "",
        "",
        "mg/dL",
        "10^9/L",
        ""
      ],
      "LBSTNRLO": [
        3.5,
        40,
        40,
        40,
        40,
        0.5,
        null,
        0,
        null,
        null,
        4,
        25,
        2,
        5,
        null,
        0,
        4,
        null
      ],
      "LBSTNRHI": [
        5,
        160,
        160,
        160,
        160,
        10,
        null,
        2.5,
        null,
        null,
        11,
        40,
        8,
        9,
        null,
        199,
        11,
        null
      ],
      "LBSTNRC": [
        "",
        "",
        "",
        "",
        "",
        "",
        "",
        "",
        "",
        "",
        "",
        "",
        "",
        "",
        "",
        "",
        "",
        "NEGATIVE to TRACE"
      ],
      "LBNRIND": [
        "LOW",
        "",
        "",
        "",
        "",
        "",
        "",
        "",
        "",
        "",
        "",
        "LOW",
        "",
        "",
        "",
        "",
        "",
        "ABNORMAL"
      ],
      "LBSTAT": [
        "",
        "",
        "",
        "",
        "",
        "",
        "",
        "",
        "",
        "",
        "",
        "",
        "",
        "",
        "NOT DONE",
        "",
        "",
        ""
      ],
      "LBREASND": [
        "",
        "",
        "",
        "",
        "",
        "",
        "",
        "",
        "",
        "",
        "",
        "",
        "",
        "",
        "INSUFFICIENT SAMPLE",
        "",
        "",
        ""
      ],
      "LBLOINC": [
        "2862-1",
        "6768-6",
        "6768-6",
        "",
        "",
        "30522-7",
        "12201-0",
        "35741-8",
        "21482-5",
        "24379-0",
        "6690-2",
        "736-9",
        "751-8",
        "5803-2",
        "2862-1",
        "2093-3",
        "6690-2",
        "20454-5"
      ],
      "LBSPEC": [
        "SERUM",
        "SERUM",
        "SERUM",
        "SERUM",
        "SERUM",
        "SERUM",
        "SERUM",
        "SERUM",
        "URINE",
        "PLATELET RICH PLASMA",
        "BLOOD",
        "BLOOD",
        "BLOOD",
        "URINE",
        "SERUM",
        "SERUM",
        "BLOOD",
        "URINE"
      ],
      "LBMETHOD": [
        "ELECTROPHORESIS",
        "",
        "",
        "",
        "",
        "",
        "OBSERVATION",
        "",
        "",
        "",
        "AUTOMATED COUNT",
        "AUTOMATED COUNT",
        "AUTOMATED COUNT",
        "TEST STRIP",
        "ELECTROPHORESIS",
        "",
        "AUTOMATED COUNT",
        "TEST STRIP"
      ],
      "LBTMTHSN": [
        "",
        "",
        "",
        "",
        "",
        "HIGH SENSITIVITY",
        "",
        "",
        "",
        "",
        "",
        "",
        "",
        "",
        "",
        "",
        "",
        ""
      ],
      "LBLOBXFL": [
        "Y",
        "",
        "Y",
        "",
        "",
        "Y",
        "Y",
        "Y",
        "Y",
        "Y",
        "Y",
        "Y",
        "Y",
        "Y",
        "",
        "",
        "",
        ""
      ],
      "LBFAST": [
        "Y",
        "Y",
        "Y",
        "Y",
        "Y",
        "Y",
        "Y",
        "Y",
        "",
        "",
        "Y",
        "Y",
        "Y",
        "Y",
        "",
        "",
        "Y",
        ""
      ],
      "LBDRVFL": [
        "",
        "",
        "",
        "",
        "Y",
        "",
        "",
        "",
        "",
        "",
        "",
        "",
        "",
        "",
        "",
        "",
        "",
        ""
      ],
      "LBCLSIG": [
        "N",
        "",
        "",
        "",
        "",
        "",
        "",
        "",
        "",
        "",
        "",
        "N",
        "",
        "",
        "",
        "",
        "",
        "N"
      ],
      "VISITNUM": [
        1,
        1,
        1,
        1,
        1,
        1,
        1,
        1,
        1,
        1,
        1,
        1,
        1,
        1,
        2,
        2,
        2,
        2
      ],
      "VISIT": [
        "Week 1",
        "Week 1",
        "Week 1",
        "Week 1",
        "Week 1",
        "Week 1",
        "Week 1",
        "Week 1",
        "Week 1",
        "Week 1",
        "Week 1",
        "Week 1",
        "Week 1",
        "Week 1",
        "Week 2",
        "Week 2",
        "Week 2",
        "Week 2"
      ],
      "LBDTC": [
        "1999-06-19",
        "1999-06-19",
        "1999-06-19",
        "1999-06-19",
        "1999-06-19",
        "1999-06-19",
        "1999-06-19",
        "1999-06-19",
        "1999-06-19",
        "1999-06-19",
        "1999-06-19",
        "1999-06-19",
        "1999-06-19",
        "1999-06-19",
        "1999-07-21",
        "1999-07-21",
        "1999-07-21",
        "1999-07-21"
      ],
      "LBPTFL": [
        "Y",
        "Y",
        "Y",
        "",
        "",
        "Y",
        "Y",
        "Y",
        "",
        "Y",
        "Y",
        "Y",
        "Y",
        "Y",
        "Y",
        "Y",
        "Y",
        "Y"
      ],
      "LBPDUR": [
        "",
        "",
        "",
        "",
        "",
        "",
        "",
        "",
        "PT24H",
        "",
        "",
        "",
        "",
        "",
        "",
        "",
        "",
        ""
      ]
    }
  }
]