STUDYID,DOMAIN,USUBJID,AESEQ,AESPID,AETERM,AELLT,AELLTCD,AEDECOD,AEPTCD,AEHLT,AEHLTCD,AEHLGT,AEHLGTCD,AEBODSYS,AEBDSYCD,AESOC,AESOCCD,AESEV,AESER,AEACN,AEREL,AEOUT,AESHOSP,AESTDTC,AEENDTC,AESTDY
CDISC-TEST,AE,CDISC-TEST-001,1,1,UPSET STOMACH,Upset Stomach,10046318,Abdominal discomfort,10000059,Gastrointestinal signs and symptoms NEC,10027678,Gastrointestinal signs and symptoms,10018012,Gastrointestinal disorders,10017947,Gastrointestinal disorders,10017947,MILD,N,,,RECOVERED/RESOLVED,N,2019-05-21,,70
CDISC-TEST,AE,CDISC-TEST-001,2,3,UPSET STOMACH,Upset Stomach,10046318,Abdominal discomfort,10000059,Gastrointestinal signs and symptoms NEC,10027678,Gastrointestinal signs and symptoms,10018012,Gastrointestinal disorders,10017947,Gastrointestinal disorders,10017947,MILD,N,,,RECOVERED/RESOLVED,N,2019-06-15,,95
CDISC-TEST,AE,CDISC-TEST-001,3,12,BACK PAIN,Back pain,10003988,Back pain,10003988,Musculoskeletal and connective tissue pain and discomfort,10068757,Musculoskeletal and connective tissue disorders NEC,10028393,Musculoskeletal and connective tissue disorders,10028395,Musculoskeletal and connective tissue disorders,10028395,MILD,N,,,RECOVERED/RESOLVED,N,2019-04-27,,46
CDISC-TEST,AE,CDISC-TEST-001,4,15,BACK PAIN,,10003988,Back pain,10003988,Musculoskeletal and connective tissue pain and discomfort,10068757,Musculoskeletal and connective tissue disorders NEC,10028393,Musculoskeletal and connective tissue disorders,10028395,Musculoskeletal and connective tissue disorders,10028395,MILD,N,,,RECOVERED/RESOLVED,N,2019-04-29,,48
CDISC-TEST,AE,CDISC-TEST-001,5,6,DIARRHOEA,Diarrhoea,10012735,Diarrhoea,10012735,Diarrhoea (excl infective),10012736,Gastrointestinal motility and defaecation conditions,10017977,Gastrointestinal disorders,10017947,Gastrointestinal disorders,10017947,MILD,N,,,RECOVERED/RESOLVED,N,2019-08-11,,152
CDISC-TEST,AE,CDISC-TEST-001,6,14,HEADACHE,Headache,10019211,Headache,10019211,Headaches NEC,10019233,Headaches,10019231,Nervous system disorders,10029205,Nervous system disorders,10029205,MILD,N,,,RECOVERED/RESOLVED,N,2019-03-16,,4
