STUDYID,DOMAIN,USUBJID,SPDEVID,ECSEQ,ECTRT,ECPRESP,ECDOSE,ECDOSTXT,ECDOSU,ECDOSFRM,ECDOSFRQ,ECROUTE,ECLOT,ECPSTRG,ECPSTRGU,EPOCH,ECSTDTC,ECENDTC,ECSTDY,ECENDY
CDISCPILOT01,EC,CDISC001,DEV0001,1,ZANOMALINE,Y,,MANY,,INJECTION,QD,SUBCUTANEOUS,SDS580-359,10.8,g/L,TREATMENT,2012-11-30,2012-11-30,1,1
CDISCPILOT01,EC,CDISC002,DEV0002,2,ZANOMALINE,Y,,A LOT,,INJECTION,QD,SUBCUTANEOUS,SDS580-360,11.8,g/L,TREATMENT,2012-11-30,2012-11-30,1,1
CDISCPILOT01,EC,CDISC003,DEV0002,2,ZANOMALINE,Y,,WHAT,,INJECTION,QD,SUBCUTANEOUS,SDS580-360,11.8,g/L,TREATMENT,2012-11-30,2012-11-30,1,1
CDISCPILOT01,EC,CDISC004,DEV0002,2,ZANOMALINE,Y,8.5,,,INJECTION,QD,SUBCUTANEOUS,SDS580-360,11.8,g/L,TREATMENT,2012-11-30,2012-11-30,1,1
CDISCPILOT01,EC,CDISC005,DEV0002,2,ZANOMALINE,Y,5,YES,,INJECTION,QD,SUBCUTANEOUS,SDS580-360,11.8,g/L,TREATMENT,2012-11-30,2012-11-30,1,1
CDISCPILOT01,EC,CDISC006,DEV0002,2,ZANOMALINE,Y,10,,,INJECTION,QD,SUBCUTANEOUS,SDS580-360,11.8,g/L,TREATMENT,2012-11-30,2012-11-30,1,1
