STUDYID,DOMAIN,USUBJID,SPDEVID,EXSEQ,EXTRT,EXDOSE,EXDOSU,EXDOSFRM,EXDOSFRQ,EXROUTE,EXLOT,EPOCH,EXSTDTC,EXENDTC,EXSTDY,EXENDY
CDISCPILOT01,EX,CDISC001,DEV0001,1,ZANOMALINE,54,mg,INJECTION,QD,SUBCUTANEOUS,SDS580-359,TREATMENT,2012-11-30,2012-11-30,1,1
CDISCPILOT01,EX,CDISC001,DEV0001,2,ZANOMALINE,54,mg,INJECTION,QD,SUBCUTANEOUS,SDS580-359,TREATMENT,2012-12-01,2012-12-01,2,2
CDISCPILOT01,EX,CDISC001,DEV0001,3,ZANOMALINE,54,mg,INJECTION,QD,SUBCUTANEOUS,SDS580-359,TREATMENT,2012-12-02,2012-12-02,3,3
CDISCPILOT01,EX,CDISC001,DEV0001,4,ZANOMALINE,54,mg,INJECTION,QD,SUBCUTANEOUS,SDS580-359,TREATMENT,2012-12-03,2012-12-03,4,4
CDISCPILOT01,EX,CDISC001,DEV0001,5,ZANOMALINE,54,mg,INJECTION,QD,SUBCUTANEOUS,SDS580-359,TREATMENT,2012-12-04,2012-12-04,5,5
CDISCPILOT01,EX,CDISC001,DEV0001,6,ZANOMALINE,54,mg,INJECTION,QD,SUBCUTANEOUS,SDS580-359,TREATMENT,2012-12-05,2012-12-05,6,6
CDISCPILOT01,EX,CDISC001,DEV0001,7,ZANOMALINE,54,mg,INJECTION,QD,SUBCUTANEOUS,SDS580-359,TREATMENT,2012-12-06,2012-12-06,7,7
CDISCPILOT01,EX,CDISC001,DEV0001,8,ZANOMALINE,54,mg,INJECTION,QD,SUBCUTANEOUS,SDS580-359,TREATMENT,2012-12-07,2012-12-07,8,8
CDISCPILOT01,EX,CDISC001,DEV0001,9,ZANOMALINE,54,mg,INJECTION,QD,SUBCUTANEOUS,SDS580-359,TREATMENT,2012-12-08,2012-12-08,9,9
CDISCPILOT01,EX,CDISC001,DEV0001,10,ZANOMALINE,54,mg,INJECTION,QD,SUBCUTANEOUS,SDS580-359,TREATMENT,2012-12-09,2012-12-09,10,10
CDISCPILOT01,EX,CDISC001,DEV0001,11,ZANOMALINE,54,mg,INJECTION,QD,SUBCUTANEOUS,SDS580-359,TREATMENT,2012-12-10,2012-12-10,11,11
CDISCPILOT01,EX,CDISC001,DEV0001,12,ZANOMALINE,54,mg,INJECTION,QD,SUBCUTANEOUS,SDS580-359,TREATMENT,2012-12-11,2012-12-11,12,12
CDISCPILOT01,EX,CDISC001,DEV0001,13,ZANOMALINE,54,mg,INJECTION,QD,SUBCUTANEOUS,SDS580-359,TREATMENT,2012-12-12,2012-12-12,13,13
CDISCPILOT01,EX,CDISC001,DEV0001,14,ZANOMALINE,54,mg,INJECTION,QD,SUBCUTANEOUS,SDS580-359,TREATMENT,2012-12-13,2012-12-13,14,14
CDISCPILOT01,EX,CDISC001,DEV0001,15,ZANOMALINE,54,mg,INJECTION,QD,SUBCUTANEOUS,SDS580-359,TREATMENT,2012-12-14,2012-12-14,15,15
CDISCPILOT01,EX,CDISC001,DEV0001,16,ZANOMALINE,54,mg,INJECTION,QD,SUBCUTANEOUS,SDS580-359,TREATMENT,2012-12-15,2012-12-15,16,16
CDISCPILOT01,EX,CDISC001,DEV0001,17,ZANOMALINE,54,mg,INJECTION,QD,SUBCUTANEOUS,SDS580-359,TREATMENT,2012-12-16,2012-12-16,17,17
CDISCPILOT01,EX,CDISC001,DEV0001,18,ZANOMALINE,54,mg,INJECTION,QD,SUBCUTANEOUS,SDS580-359,TREATMENT,2012-12-17,2012-12-17,18,18
CDISCPILOT01,EX,CDISC001,DEV0001,19,ZANOMALINE,54,mg,INJECTION,QD,SUBCUTANEOUS,SDS580-359,TREATMENT,2012-12-18,2012-12-18,19,19
CDISCPILOT01,EX,CDISC001,DEV0001,20,ZANOMALINE,54,mg,INJECTION,QD,SUBCUTANEOUS,SDS580-359,TREATMENT,2012-12-19,2012-12-19,20,20
CDISCPILOT01,EX,CDISC001,DEV0001,21,ZANOMALINE,54,mg,INJECTION,QD,SUBCUTANEOUS,SDS580-359,TREATMENT,2012-12-20,2012-12-20,21,21
CDISCPILOT01,EX,CDISC001,DEV0001,22,ZANOMALINE,54,mg,INJECTION,QD,SUBCUTANEOUS,SDS580-359,TREATMENT,2012-12-21,2012-12-21,22,22
CDISCPILOT01,EX,CDISC001,DEV0001,23,ZANOMALINE,54,mg,INJECTION,QD,SUBCUTANEOUS,SDS580-359,TREATMENT,2012-12-22,2012-12-22,23,23
CDISCPILOT01,EX,CDISC001,DEV0001,24,ZANOMALINE,54,mg,INJECTION,QD,SUBCUTANEOUS,SDS580-359,TREATMENT,2012-12-23,2012-12-23,24,24
CDISCPILOT01,EX,CDISC001,DEV0001,25,ZANOMALINE,54,mg,INJECTION,QD,SUBCUTANEOUS,SDS580-359,TREATMENT,2012-12-24,2012-12-24,25,25
CDISCPILOT01,EX,CDISC001,DEV0001,26,ZANOMALINE,54,mg,INJECTION,QD,SUBCUTANEOUS,SDS580-359,TREATMENT,2012-12-25,2012-12-25,26,26
CDISCPILOT01,EX,CDISC001,DEV0001,27,ZANOMALINE,54,mg,INJECTION,QD,SUBCUTANEOUS,SDS580-359,TREATMENT,2012-12-26,2012-12-26,27,27
CDISCPILOT01,EX,CDISC001,DEV0001,28,ZANOMALINE,54,mg,INJECTION,QD,SUBCUTANEOUS,SDS580-359,TREATMENT,2012-12-27,2012-12-27,28,28
CDISCPILOT01,EX,CDISC001,DEV0001,29,ZANOMALINE,54,mg,INJECTION,QD,SUBCUTANEOUS,SDS580-359,TREATMENT,2012-12-28,2012-12-28,29,29
CDISCPILOT01,EX,CDISC001,DEV0001,30,ZANOMALINE,54,mg,INJECTION,QD,SUBCUTANEOUS,SDS580-359,TREATMENT,2012-12-29,2012-12-29,30,30
CDISCPILOT01,EX,CDISC001,DEV0001,31,ZANOMALINE,54,mg,INJECTION,QD,SUBCUTANEOUS,SDS580-359,TREATMENT,2012-12-30,2012-12-30,31,31
CDISCPILOT01,EX,CDISC001,DEV0001,32,ZANOMALINE,54,mg,INJECTION,QD,SUBCUTANEOUS,SDS580-359,TREATMENT,2012-12-31,2012-12-31,32,32
CDISCPILOT01,EX,CDISC001,DEV0001,33,ZANOMALINE,54,mg,INJECTION,QD,SUBCUTANEOUS,SDS580-359,TREATMENT,2013-01-01,2013-01-01,33,33
CDISCPILOT01,EX,CDISC001,DEV0001,34,ZANOMALINE,54,mg,INJECTION,QD,SUBCUTANEOUS,SDS580-359,TREATMENT,2013-01-02,2013-01-02,34,34
CDISCPILOT01,EX,CDISC001,DEV0001,35,ZANOMALINE,54,mg,INJECTION,QD,SUBCUTANEOUS,SDS580-359,TREATMENT,2013-01-03,2013-01-03,35,35
CDISCPILOT01,EX,CDISC001,DEV0001,36,ZANOMALINE,54,mg,INJECTION,QD,SUBCUTANEOUS,SDS580-359,TREATMENT,2013-01-04,2013-01-04,36,36
CDISCPILOT01,EX,CDISC001,DEV0001,37,ZANOMALINE,54,mg,INJECTION,QD,SUBCUTANEOUS,SDS580-359,TREATMENT,2013-01-05,2013-01-05,37,37
CDISCPILOT01,EX,CDISC001,DEV0001,38,ZANOMALINE,54,mg,INJECTION,QD,SUBCUTANEOUS,SDS580-359,TREATMENT,2013-01-06,2013-01-06,38,38
CDISCPILOT01,EX,CDISC001,DEV0001,39,ZANOMALINE,54,mg,INJECTION,QD,SUBCUTANEOUS,SDS580-359,TREATMENT,2013-01-07,2013-01-07,39,39
CDISCPILOT01,EX,CDISC001,DEV0001,40,ZANOMALINE,54,mg,INJECTION,QD,SUBCUTANEOUS,SDS580-359,TREATMENT,2013-01-08,2013-01-08,40,40
CDISCPILOT01,EX,CDISC001,DEV0001,41,ZANOMALINE,54,mg,INJECTION,QD,SUBCUTANEOUS,SDS580-359,TREATMENT,2013-01-09,2013-01-09,41,41
CDISCPILOT01,EX,CDISC001,DEV0001,42,ZANOMALINE,54,mg,INJECTION,QD,SUBCUTANEOUS,SDS580-359,TREATMENT,2013-01-10,2013-01-10,42,42
CDISCPILOT01,EX,CDISC001,DEV0001,43,ZANOMALINE,54,mg,INJECTION,QD,SUBCUTANEOUS,SDS580-359,TREATMENT,2013-01-11,2013-01-11,43,43
CDISCPILOT01,EX,CDISC001,DEV0001,44,ZANOMALINE,54,mg,INJECTION,QD,SUBCUTANEOUS,SDS580-359,TREATMENT,2013-01-12,2013-01-12,44,44
CDISCPILOT01,EX,CDISC001,DEV0001,45,ZANOMALINE,54,mg,INJECTION,QD,SUBCUTANEOUS,SDS580-359,TREATMENT,2013-01-13,2013-01-13,45,45
CDISCPILOT01,EX,CDISC001,DEV0001,46,ZANOMALINE,54,mg,INJECTION,QD,SUBCUTANEOUS,SDS580-359,TREATMENT,2013-01-14,2013-01-14,46,46
CDISCPILOT01,EX,CDISC001,DEV0001,47,ZANOMALINE,54,mg,INJECTION,QD,SUBCUTANEOUS,SDS580-359,TREATMENT,2013-01-15,2013-01-15,47,47
CDISCPILOT01,EX,CDISC001,DEV0001,48,ZANOMALINE,54,mg,INJECTION,QD,SUBCUTANEOUS,SDS580-359,TREATMENT,2013-01-16,2013-01-16,48,48
CDISCPILOT01,EX,CDISC001,DEV0001,49,ZANOMALINE,54,mg,INJECTION,QD,SUBCUTANEOUS,SDS580-359,TREATMENT,2013-01-17,2013-01-17,49,49
CDISCPILOT01,EX,CDISC001,DEV0001,50,ZANOMALINE,54,mg,INJECTION,QD,SUBCUTANEOUS,SDS580-359,TREATMENT,2013-01-18,2013-01-18,50,50
CDISCPILOT01,EX,CDISC001,DEV0001,51,ZANOMALINE,54,mg,INJECTION,QD,SUBCUTANEOUS,SDS580-359,TREATMENT,2013-01-19,2013-01-19,51,51
CDISCPILOT01,EX,CDISC001,DEV0001,52,ZANOMALINE,54,mg,INJECTION,QD,SUBCUTANEOUS,SDS580-359,TREATMENT,2013-01-20,2013-01-20,52,52
CDISCPILOT01,EX,CDISC001,DEV0001,53,ZANOMALINE,54,mg,INJECTION,QD,SUBCUTANEOUS,SDS580-359,TREATMENT,2013-01-21,2013-01-21,53,53
CDISCPILOT01,EX,CDISC001,DEV0001,54,ZANOMALINE,54,mg,INJECTION,QD,SUBCUTANEOUS,SDS580-359,TREATMENT,2013-01-22,2013-01-22,54,54
CDISCPILOT01,EX,CDISC001,DEV0001,55,ZANOMALINE,54,mg,INJECTION,QD,SUBCUTANEOUS,SDS580-359,TREATMENT,2013-01-23,2013-01-23,55,55
CDISCPILOT01,EX,CDISC999,DEV0001,1,ZANOMALINE,54,mg,INJECTION,QD,SUBCUTANEOUS,SDS580-359,TREATMENT,2012-11-29,2012-11-29,1,1
CDISCPILOT01,EX,CDISC999,DEV0001,2,ZANOMALINE,54,mg,INJECTION,QD,SUBCUTANEOUS,SDS580-359,TREATMENT,2012-12-01,2012-12-01,2,2
CDISCPILOT01,EX,CDISC999,DEV0001,54,ZANOMALINE,54,mg,INJECTION,QD,SUBCUTANEOUS,SDS580-359,TREATMENT,2013-01-22,2013-01-22,54,54
CDISCPILOT01,EX,CDISC999,DEV0001,55,ZANOMALINE,54,mg,INJECTION,QD,SUBCUTANEOUS,SDS580-359,TREATMENT,2013-01-23,2013-01-23,55,55
CDISCPILOT01,EX,CDISC101,DEV0001,1,ZANOMALINE,54,mg,INJECTION,QD,SUBCUTANEOUS,SDS580-359,TREATMENT,2012-11-29T14:55,2012-11-29,1,1
CDISCPILOT01,EX,CDISC101,DEV0001,2,ZANOMALINE,54,mg,INJECTION,QD,SUBCUTANEOUS,SDS580-359,TREATMENT,2012-12-01,2012-12-01,2,2
CDISCPILOT01,EX,CDISC101,DEV0001,54,ZANOMALINE,54,mg,INJECTION,QD,SUBCUTANEOUS,SDS580-359,TREATMENT,2013-01-22,2013-01-22,54,54
CDISCPILOT01,EX,CDISC101,DEV0001,55,ZANOMALINE,54,mg,INJECTION,QD,SUBCUTANEOUS,SDS580-359,TREATMENT,2012-01-23T12:00,2013-01-23T09:02,55,55
