STUDYID,DOMAIN,USUBJID,EGSEQ,EGTESTCD,EGTEST,EGORRES,EGORRESU,EGTOX,EGTOXGR
ABC123,EG,123101,1,QRSAG,"PR Interval, Aggregate",0.362,sec,CTCAE 4.03,GRADE 1
ABC123,EG,123101,2,QTAG,"QT Interval, Aggregate",221,msec,CTCAE 4.03,GRADE 2
