dataset,variable,label,type,length
mh,STUDYID,Study Identifier,Char,12
mh,DOMAIN,Domain Abbreviation,Char,2
mh,USUBJID,Unique Subject Identifier,Char,8
mh,MHSEQ,Sequence Number,Num,8
mh,MHTERM,Reported Term for the Medical History,Char,19
mh,MHEVDTYP,Medical History Event Date Type,Char,13
mh,MHSCAT,Subcategory for Medical History,Char,200
mh,MHBODSYS,Body System or Organ Class,Char,201
mh,MHBDSYCD,Body System or Organ Class Code,Num,8
mh,MHSOC,Primary System Organ Class,Char,50
mh,MHSOCCD,Primary System Organ Class Code,Num,8
mh,MHSTDTC,Start Date/Time of Medical History Event,Char,10
mh,MHSTDY,Study Day of Start of Observation,Num,8
