STUDYID,DOMAIN,USUBJID,CMSEQ,CMTRT,CMPRESP,CMOCCUR,CMSTAT,CMREASND,CMINDC,CMDOSE,CMDOSU,CMDOSFRQ,CMROUTE,EPOCH,CMSTDTC,CMENDTC,CMSTDY,CMENDY,CMENRTPT,CMENTPT
CDISCPILOT01,CM,CDISC001,1,ASPIRIN,Y,,NOT DONE,But it was done.,PROPHYLAXIS OR NON-THERAPEUTIC USE,1,TABLET,QD,ORAL,SCREENING,2011,2013-04-29,,151,,
CDISCPILOT01,CM,CDISC001,2,METAMUCIL,Y,,NOT DONE,Not sure,PROPHYLAXIS OR NON-THERAPEUTIC USE,1,TABLET,PRN,ORAL,SCREENING,2012-08,,,,ONGOING,2013-05-20
CDISCPILOT01,CM,CDISC001,3,"HYDROCORTISONE, TOPICAL",Y,,NOT DONE,,PROPHYLAXIS OR NON-THERAPEUTIC USE,1,TABLET,BID,TOPICAL,TREATMENT,2013-01-11,,43,,ONGOING,2013-05-20
CDISCPILOT01,CM,CDISC001,4,HYTRIN,Y,,NOT DONE,,PROPHYLAXIS OR NON-THERAPEUTIC USE,2,TABLET,Q4H,ORAL,TREATMENT,2013-04-19,2013-05-14,141,166,,
CDISCPILOT01,CM,CDISC001,5,ASPIRIN,Y,N,,,PROPHYLAXIS OR NON-THERAPEUTIC USE,80,mg,QID,ORAL,TREATMENT,2013-04-29,,151,,ONGOING,2013-05-20
