{
    "rule": {
        "Authorities": [
            {
                "Organization": "CDISC",
                "Standards": [
                    {
                        "Name": "SDTMIG",
                        "References": [
                            {
                                "Citations": [
                                    {
                                        "Document": "IG v3.2",
                                        "Section": "4.1.1.4",
                                        "Cited_Guidance": "Variables for the three general observation classes must be ordered with Identifiers first; followed by the Topic; Qualifier; and Timing variables. Within each role; variables must be ordered as shown in SDTM: Tables 2.2.1; 2.2.2; 2.2.3; 2.2.3.1; 2.2.4; and 2.2.5"
                                    }
                                ],
                                "Origin": "SDTM and SDTMIG Conformance Rules",
                                "Version": "2.0",
                                "Rule_Identifier": {
                                    "Id": "CG0330",
                                    "Version": "1"
                                }
                            }
                        ],
                        "Version": "3.2"
                    },
                    {
                        "Name": "SDTMIG",
                        "References": [
                            {
                                "Citations": [
                                    {
                                        "Document": "IG v3.3",
                                        "Section": "4.1.4",
                                        "Cited_Guidance": "Variables for the three general observation classes must be ordered with Identifiers first; followed by the Topic; Qualifier; and Timing variables. Within each role; variables must be ordered as shown in SDTM: Tables 2.2.1; 2.2.2; 2.2.3; 2.2.3.1; 2.2.4; and 2.2.5"
                                    }
                                ],
                                "Origin": "SDTM and SDTMIG Conformance Rules",
                                "Version": "2.0",
                                "Rule_Identifier": {
                                    "Id": "CG0330",
                                    "Version": "1"
                                }
                            }
                        ],
                        "Version": "3.3"
                    },
                    {
                        "Name": "SDTMIG",
                        "References": [
                            {
                                "Citations": [
                                    {
                                        "Document": "IG v3.4",
                                        "Section": "4.1.4",
                                        "Cited_Guidance": "Variables for the 3 general observation classes must be ordered with Identifiers variables first, followed by Topic, Qualifier, and Timing variables. Within each role, variables must be ordered as shown in SDTM Sections 3.1.1, The Interventions Observation Class; 3.1.2, The Events Observation Class; 3.1.3, The Findings Observation Class; 3.1.3.1, Findings About Events or Interventions; 3.1.4, Identifiers for All Classes; and 3.1.5, Timing Variables for All Classes."
                                    }
                                ],
                                "Origin": "SDTM and SDTMIG Conformance Rules",
                                "Version": "2.0",
                                "Rule_Identifier": {
                                    "Id": "CG0664",
                                    "Version": "1"
                                }
                            }
                        ],
                        "Version": "3.4"
                    },
                    {
                        "Name": "TIG",
                        "References": [
                            {
                                "Citations": [
                                    {
                                        "Document": "TIG 1.0",
                                        "Item": "Tabulation Datasets Num 3",
                                        "Section": "2.6",
                                        "Cited_Guidance": "Dataset variables will be ordered per guidance in the SDTM Model v1.2. Variable order in TIG Domain Specifications aligns with variable order in the SDTM."
                                    }
                                ],
                                "Origin": "TIG Conformance Rules",
                                "Version": "1.0",
                                "Rule_Identifier": {
                                    "Id": "TIG0698",
                                    "Version": "1"
                                }
                            }
                        ],
                        "Substandard": "SDTM",
                        "Version": "1.0"
                    },
                    {
                        "Name": "SENDIG",
                        "References": [
                            {
                                "Citations": [
                                    {
                                        "Document": "SENDIG v3.0",
                                        "Item": "Text",
                                        "Section": "4.1.2",
                                        "Cited_Guidance": "The order of variables in the data definition file should reflect the order of variables in the dataset. The order of variables in the SDTM domain models has been chosen to facilitate the review of the models and application of the models. Variables for the three general observation classes should be ordered with Identifiers first, followed by the Topic Qualifier, and Timing variables. Within each role, variables are ordered as shown in Tables 2.2.1-2.2.5 of the SDTM."
                                    }
                                ],
                                "Origin": "SEND Conformance Rules",
                                "Version": "5.0",
                                "Rule_Identifier": {
                                    "Id": "SEND48",
                                    "Version": "1"
                                }
                            }
                        ],
                        "Version": "3.0"
                    },
                    {
                        "Name": "SENDIG",
                        "References": [
                            {
                                "Citations": [
                                    {
                                        "Document": "SENDIG v3.1",
                                        "Item": "Text",
                                        "Section": "4.1.2",
                                        "Cited_Guidance": "The order of variables in the data definition file should reflect the order of variables in the dataset. The order of variables in the SDTM domain models has been chosen to facilitate the review of the models and application of the models. Variables for the three general observation classes should be ordered with Identifiers first, followed by the Topic Qualifier, and Timing variables. Within each role, variables are ordered as shown in Tables 2.2.1-2.2.5 of the SDTM."
                                    }
                                ],
                                "Origin": "SEND Conformance Rules",
                                "Version": "5.0",
                                "Rule_Identifier": {
                                    "Id": "SEND48",
                                    "Version": "1"
                                }
                            }
                        ],
                        "Version": "3.1"
                    },
                    {
                        "Name": "SENDIG",
                        "References": [
                            {
                                "Citations": [
                                    {
                                        "Document": "SENDIG v3.1.1",
                                        "Item": "Text",
                                        "Section": "4.1.2",
                                        "Cited_Guidance": "The order of variables in the data definition file should reflect the order of variables in the dataset. The order of variables in the SDTM domain models has been chosen to facilitate the review of the models and application of the models. Variables for the three general observation classes should be ordered with Identifiers first, followed by the Topic Qualifier, and Timing variables. Within each role, variables are ordered as shown in Tables 2.2.1-2.2.5 of the SDTM."
                                    }
                                ],
                                "Origin": "SEND Conformance Rules",
                                "Version": "5.0",
                                "Rule_Identifier": {
                                    "Id": "SEND48",
                                    "Version": "1"
                                }
                            }
                        ],
                        "Version": "3.1.1"
                    },
                    {
                        "Name": "SENDIG-GENETOX",
                        "References": [
                            {
                                "Citations": [
                                    {
                                        "Document": "SENDIG v3.1.1",
                                        "Item": "Text",
                                        "Section": "4.1.2",
                                        "Cited_Guidance": "The order of variables in the data definition file should reflect the order of variables in the dataset. The order of variables in the SDTM domain models has been chosen to facilitate the review of the models and application of the models. Variables for the three general observation classes should be ordered with Identifiers first, followed by the Topic Qualifier, and Timing variables. Within each role, variables are ordered as shown in Tables 2.2.1-2.2.5 of the SDTM."
                                    }
                                ],
                                "Origin": "SEND Conformance Rules",
                                "Version": "5.0",
                                "Rule_Identifier": {
                                    "Id": "SEND48",
                                    "Version": "1"
                                }
                            }
                        ],
                        "Version": "1.0"
                    },
                    {
                        "Name": "SENDIG-DART",
                        "References": [
                            {
                                "Citations": [
                                    {
                                        "Document": "SENDIG v3.1",
                                        "Item": "Text",
                                        "Section": "4.1.2",
                                        "Cited_Guidance": "The order of variables in the data definition file should reflect the order of variables in the dataset. The order of variables in the SDTM domain models has been chosen to facilitate the review of the models and application of the models. Variables for the three general observation classes should be ordered with Identifiers first, followed by the Topic Qualifier, and Timing variables. Within each role, variables are ordered as shown in Tables 2.2.1-2.2.5 of the SDTM."
                                    }
                                ],
                                "Origin": "SEND Conformance Rules",
                                "Version": "5.0",
                                "Rule_Identifier": {
                                    "Id": "SEND48",
                                    "Version": "1"
                                }
                            }
                        ],
                        "Version": "1.1"
                    },
                    {
                        "Name": "SENDIG-DART",
                        "References": [
                            {
                                "Citations": [
                                    {
                                        "Document": "SENDIG v3.1.1",
                                        "Item": "Text",
                                        "Section": "4.1.2",
                                        "Cited_Guidance": "The order of variables in the data definition file should reflect the order of variables in the dataset. The order of variables in the SDTM domain models has been chosen to facilitate the review of the models and application of the models. Variables for the three general observation classes should be ordered with Identifiers first, followed by the Topic Qualifier, and Timing variables. Within each role, variables are ordered as shown in Tables 2.2.1-2.2.5 of the SDTM."
                                    }
                                ],
                                "Origin": "SEND Conformance Rules",
                                "Version": "5.0",
                                "Rule_Identifier": {
                                    "Id": "SEND48",
                                    "Version": "1"
                                }
                            }
                        ],
                        "Version": "1.2"
                    }
                ]
            }
        ],
        "Check": {
            "all": [
                {
                    "name": "$column_order_from_dataset",
                    "operator": "is_not_ordered_subset_of",
                    "value": "$column_order_from_library"
                }
            ]
        },
        "Core": {
            "Id": "CDISC.SDTMIG.CG0330",
            "Status": "Draft",
            "Version": "1"
        },
        "Description": "Raise an error when variables are not in the specified order",
        "Executability": "Fully Executable",
        "Operations": [
            {
                "id": "$column_order_from_library",
                "operator": "get_column_order_from_library"
            },
            {
                "id": "$column_order_from_dataset",
                "operator": "get_column_order_from_dataset"
            }
        ],
        "Outcome": {
            "Message": "Variables are not in the correct order as shown in SDTM for the observation class.",
            "Output_Variables": [
                "$column_order_from_dataset",
                "$column_order_from_library"
            ]
        },
        "Scope": {
            "Classes": {
                "Include": [
                    "ALL"
                ]
            },
            "Domains": {
                "Include": [
                    "ALL"
                ]
            }
        },
        "Sensitivity": "Dataset",
        "Rule_Type": "Variable Metadata Check"
    },
    "datasets": [
        {
            "filename": "cm.xpt",
            "label": "Concomitant/Prior Medications",
            "domain": "CM",
            "variables": [
                {
                    "name": "STUDYID",
                    "label": "Study Identifier",
                    "type": "Char",
                    "length": 50
                },
                {
                    "name": "DOMAIN",
                    "label": "Domain Abbreviation",
                    "type": "Char",
                    "length": 50
                },
                {
                    "name": "USUBJID",
                    "label": "Unique Subject Identifier",
                    "type": "Char",
                    "length": 50
                },
                {
                    "name": "CMSEQ",
                    "label": "Sequence Number",
                    "type": "Num",
                    "length": 8
                },
                {
                    "name": "CMTRT",
                    "label": "Reported Name of Drug, Med, or Therapy",
                    "type": "Char",
                    "length": 50
                },
                {
                    "name": "CMINDC",
                    "label": "Indication",
                    "type": "Char",
                    "length": 50
                },
                {
                    "name": "CMDOSE",
                    "label": "Dose per Administration",
                    "type": "Num",
                    "length": 8
                },
                {
                    "name": "CMDOSU",
                    "label": "Dose Units",
                    "type": "Char",
                    "length": 50
                },
                {
                    "name": "CMDOSFRQ",
                    "label": "Dosing Frequency per Interval",
                    "type": "Char",
                    "length": 50
                },
                {
                    "name": "CMROUTE",
                    "label": "Route of Administration",
                    "type": "Char",
                    "length": 50
                },
                {
                    "name": "EPOCH",
                    "label": "Epoch",
                    "type": "Char",
                    "length": 50
                },
                {
                    "name": "CMDTC",
                    "label": "Date/Time of Collection",
                    "type": "Char",
                    "length": 50
                },
                {
                    "name": "CMSTDTC",
                    "label": "Start Date/Time of Medication",
                    "type": "Char",
                    "length": 50
                },
                {
                    "name": "CMENDTC",
                    "label": "End Date/Time of Medication",
                    "type": "Char",
                    "length": 50
                },
                {
                    "name": "CMDY",
                    "label": "Study Day of Date/Time of Collection",
                    "type": "Num",
                    "length": 8
                },
                {
                    "name": "CMSTDY",
                    "label": "Study Day of Start of Medication",
                    "type": "Num",
                    "length": 8
                },
                {
                    "name": "CMENDY",
                    "label": "Study Day of End of Medication",
                    "type": "Num",
                    "length": 8
                },
                {
                    "name": "CMSTRTPT",
                    "label": "Start Relative to Reference Time Point",
                    "type": "Char",
                    "length": 50
                },
                {
                    "name": "CMSTTPT",
                    "label": "Start Reference Time Point",
                    "type": "Char",
                    "length": 50
                },
                {
                    "name": "CMENRTPT",
                    "label": "End Relative to Reference Time Point",
                    "type": "Char",
                    "length": 50
                },
                {
                    "name": "CMENTPT",
                    "label": "End Reference Time Point",
                    "type": "Char",
                    "length": 50
                }
            ],
            "records": {
                "STUDYID": [
                    "CDISCPILOT01",
                    "CDISCPILOT01",
                    "CDISCPILOT01",
                    "CDISCPILOT01"
                ],
                "DOMAIN": [
                    "CM",
                    "CM",
                    "CM",
                    "CM"
                ],
                "USUBJID": [
                    "CDISC001",
                    "CDISC001",
                    "CDISC001",
                    "CDISC001"
                ],
                "CMSEQ": [
                    1,
                    2,
                    3,
                    4
                ],
                "CMTRT": [
                    "ASPIRIN",
                    "METAMUCIL",
                    "HYDROCORTISONE, TOPICAL",
                    "HYTRIN"
                ],
                "CMINDC": [
                    "PROPHYLAXIS OR NON-THERAPEUTIC USE",
                    "PROPHYLAXIS OR NON-THERAPEUTIC USE",
                    "PROPHYLAXIS OR NON-THERAPEUTIC USE",
                    "PROPHYLAXIS OR NON-THERAPEUTIC USE"
                ],
                "CMDOSE": [
                    1,
                    1,
                    1,
                    2
                ],
                "CMDOSU": [
                    "TABLET",
                    "TABLET",
                    "TABLET",
                    "TABLET"
                ],
                "CMDOSFRQ": [
                    "QD",
                    "PRN",
                    "BID",
                    "Q4H"
                ],
                "CMROUTE": [
                    "ORAL",
                    "ORAL",
                    "TOPICAL",
                    "ORAL"
                ],
                "EPOCH": [
                    "SCREENING",
                    "SCREENING",
                    "TREATMENT",
                    "TREATMENT"
                ],
                "CMDTC": [
                    "2011",
                    "2012-08",
                    "2013-01-11",
                    "2013-04-19"
                ],
                "CMSTDTC": [
                    "2011",
                    "2012-08",
                    "2013-01-11",
                    "2013-04-19"
                ],
                "CMENDTC": [
                    "2013-04-29",
                    "",
                    "",
                    "2013-05-14"
                ],
                "CMDY": [
                    null,
                    null,
                    null,
                    null
                ],
                "CMSTDY": [
                    null,
                    null,
                    43,
                    141
                ],
                "CMENDY": [
                    151,
                    null,
                    null,
                    166
                ],
                "CMSTRTPT": [
                    "BEFORE",
                    "",
                    "BEFORE",
                    ""
                ],
                "CMSTTPT": [
                    "SCREENING",
                    "",
                    "SCREENING",
                    ""
                ],
                "CMENRTPT": [
                    "",
                    "ONGOING",
                    "ONGOING",
                    ""
                ],
                "CMENTPT": [
                    "",
                    "",
                    "",
                    ""
                ]
            }
        },
        {
            "filename": "ce.xpt",
            "label": "Clinical Events",
            "domain": "CE",
            "variables": [
                {
                    "name": "STUDYID",
                    "label": "Study Identifier",
                    "type": "Char",
                    "length": 50
                },
                {
                    "name": "DOMAIN",
                    "label": "Domain Abbreviation",
                    "type": "Char",
                    "length": 50
                },
                {
                    "name": "USUBJID",
                    "label": "Unique Subject Identifier",
                    "type": "Char",
                    "length": 50
                },
                {
                    "name": "CESEQ",
                    "label": "Sequence Number",
                    "type": "Num",
                    "length": 8
                },
                {
                    "name": "CEGRPID",
                    "label": "Group ID",
                    "type": "Char",
                    "length": 50
                },
                {
                    "name": "CETERM",
                    "label": "Reported Term for the Clinical Event",
                    "type": "Char",
                    "length": 50
                },
                {
                    "name": "CESEV",
                    "label": "Severity/Intensity",
                    "type": "Char",
                    "length": 50
                },
                {
                    "name": "EPOCH",
                    "label": "Epoch",
                    "type": "Char",
                    "length": 50
                },
                {
                    "name": "CEDTC",
                    "label": "Start Date/Time of Event Collection",
                    "type": "Char",
                    "length": 50
                },
                {
                    "name": "CESTDTC",
                    "label": "Start Date/Time of Clinical Event",
                    "type": "Char",
                    "length": 50
                },
                {
                    "name": "CEENDTC",
                    "label": "End Date/Time of Clinical Event",
                    "type": "Char",
                    "length": 50
                },
                {
                    "name": "CEDY",
                    "label": "Study Day of Date/Time of Collection",
                    "type": "Num",
                    "length": 8
                },
                {
                    "name": "CESTDY",
                    "label": "Study Day of Start of Event",
                    "type": "Num",
                    "length": 8
                },
                {
                    "name": "CEENDY",
                    "label": "Study Day of End of Event",
                    "type": "Num",
                    "length": 8
                },
                {
                    "name": "CESTRTPT",
                    "label": "Start Relative to Reference Time Point",
                    "type": "Char",
                    "length": 50
                },
                {
                    "name": "CESTTPT",
                    "label": "Start Reference Time Point",
                    "type": "Char",
                    "length": 50
                },
                {
                    "name": "CEENRTPT",
                    "label": "End Relative to Reference Time Point",
                    "type": "Char",
                    "length": 50
                },
                {
                    "name": "CEENTPT",
                    "label": "End Reference Time Point",
                    "type": "Char",
                    "length": 50
                }
            ],
            "records": {
                "STUDYID": [
                    "CDISCPILOT01",
                    "CDISCPILOT01",
                    "CDISCPILOT01",
                    "CDISCPILOT01",
                    "CDISCPILOT01",
                    "CDISCPILOT01",
                    "CDISCPILOT01",
                    "CDISCPILOT01",
                    "CDISCPILOT01",
                    "CDISCPILOT01",
                    "CDISCPILOT01",
                    "CDISCPILOT01",
                    "CDISCPILOT01",
                    "CDISCPILOT01"
                ],
                "DOMAIN": [
                    "CE",
                    "CE",
                    "CE",
                    "CE",
                    "CE",
                    "CE",
                    "CE",
                    "CE",
                    "CE",
                    "CE",
                    "CE",
                    "CE",
                    "CE",
                    "CE"
                ],
                "USUBJID": [
                    "CDISC001",
                    "CDISC002",
                    "CDISC002",
                    "CDISC003",
                    "CDISC005",
                    "CDISC005",
                    "CDISC005",
                    "CDISC005",
                    "CDISC007",
                    "CDISC011",
                    "CDISC011",
                    "CDISC014",
                    "CDISC017",
                    "CDISC018"
                ],
                "CESEQ": [
                    1,
                    1,
                    5,
                    14,
                    1,
                    2,
                    3,
                    4,
                    1,
                    2,
                    4,
                    1,
                    5,
                    8
                ],
                "CEGRPID": [
                    "1",
                    "1",
                    "5",
                    "14",
                    "1",
                    "2",
                    "4",
                    "5",
                    "1",
                    "2",
                    "4",
                    "1",
                    "5",
                    "8"
                ],
                "CETERM": [
                    "INJECTION SITE REACTION",
                    "INJECTION SITE REACTION",
                    "INJECTION SITE REACTION",
                    "INJECTION SITE REACTION",
                    "INJECTION SITE REACTION",
                    "INJECTION SITE REACTION",
                    "INJECTION SITE REACTION",
                    "INJECTION SITE REACTION",
                    "INJECTION SITE REACTION",
                    "INJECTION SITE REACTION",
                    "INJECTION SITE REACTION",
                    "INJECTION SITE REACTION",
                    "INJECTION SITE REACTION",
                    "INJECTION SITE REACTION"
                ],
                "CESEV": [
                    "MODERATE",
                    "MILD",
                    "MILD",
                    "MILD",
                    "MILD",
                    "MILD",
                    "MILD",
                    "MILD",
                    "MODERATE",
                    "MILD",
                    "MILD",
                    "MODERATE",
                    "MODERATE",
                    "MODERATE"
                ],
                "EPOCH": [
                    "TREATMENT",
                    "TREATMENT",
                    "TREATMENT",
                    "TREATMENT",
                    "TREATMENT",
                    "TREATMENT",
                    "TREATMENT",
                    "TREATMENT",
                    "TREATMENT",
                    "TREATMENT",
                    "TREATMENT",
                    "TREATMENT",
                    "TREATMENT",
                    "TREATMENT"
                ],
                "CEDTC": [
                    "",
                    "",
                    "",
                    "",
                    "",
                    "",
                    "",
                    "2013-04-12",
                    "2013-01-19",
                    "",
                    "",
                    "",
                    "",
                    ""
                ],
                "CESTDTC": [
                    "2012-12-02",
                    "2012-11-16",
                    "2012-11-29",
                    "2013-10-15",
                    "2013-02-07",
                    "2013-03-23",
                    "2013-03-23",
                    "2013-04-12",
                    "2013-01-19",
                    "2013-01-12",
                    "2013-04-10",
                    "2013-04-16",
                    "2013-12-29",
                    "2013-01-27"
                ],
                "CEENDTC": [
                    "",
                    "",
                    "",
                    "",
                    "2013-02-07",
                    "",
                    "2013-03-26",
                    "",
                    "",
                    "2013-01-12",
                    "2013-06-05",
                    "2013-05-02",
                    "2014-02-19",
                    "2013-01-28"
                ],
                "CEDY": [
                    null,
                    null,
                    null,
                    null,
                    null,
                    null,
                    null,
                    null,
                    null,
                    null,
                    null,
                    null,
                    null,
                    null
                ],
                "CESTDY": [
                    3,
                    2,
                    15,
                    48,
                    4,
                    48,
                    48,
                    68,
                    15,
                    37,
                    125,
                    14,
                    100,
                    42
                ],
                "CEENDY": [
                    null,
                    null,
                    null,
                    null,
                    4,
                    null,
                    51,
                    null,
                    null,
                    37,
                    181,
                    30,
                    152,
                    43
                ],
                "CESTRTPT": [
                    "",
                    "AFTER",
                    "",
                    "COINCIDENT",
                    "",
                    "",
                    "",
                    "",
                    "",
                    "",
                    "DURING/AFTER",
                    "",
                    "",
                    ""
                ],
                "CESTTPT": [
                    "",
                    "FIRST DOSE",
                    "",
                    "FIRST DOSE",
                    "",
                    "",
                    "",
                    "",
                    "",
                    "",
                    "FIRST DOSE",
                    "",
                    "",
                    ""
                ],
                "CEENRTPT": [
                    "ONGOING",
                    "ONGOING",
                    "ONGOING",
                    "",
                    "",
                    "ONGOING",
                    "",
                    "ONGOING",
                    "ONGOING",
                    "",
                    "",
                    "",
                    "",
                    ""
                ],
                "CEENTPT": [
                    "",
                    "",
                    "",
                    "",
                    "",
                    "",
                    "",
                    "",
                    "",
                    "",
                    "",
                    "",
                    "",
                    ""
                ]
            }
        },
        {
            "filename": "lb.xpt",
            "label": "Laboratory Test Results",
            "domain": "LB",
            "variables": [
                {
                    "name": "STUDYID",
                    "label": "Study Identifier",
                    "type": "Char",
                    "length": 12
                },
                {
                    "name": "DOMAIN",
                    "label": "Domain Abbreviation",
                    "type": "Char",
                    "length": 2
                },
                {
                    "name": "USUBJID",
                    "label": "Unique Subject Identifier",
                    "type": "Char",
                    "length": 8
                },
                {
                    "name": "LBSEQ",
                    "label": "Sequence Number",
                    "type": "Num",
                    "length": 8
                },
                {
                    "name": "LBTESTCD",
                    "label": "Lab Test or Examination Short Name",
                    "type": "Char",
                    "length": 7
                },
                {
                    "name": "LBTEST",
                    "label": "Lab Test or Examination Name",
                    "type": "Char",
                    "length": 39
                },
                {
                    "name": "LBCAT",
                    "label": "Category for Lab Test",
                    "type": "Char",
                    "length": 10
                },
                {
                    "name": "LBORRES",
                    "label": "Result or Finding in Original Units",
                    "type": "Char",
                    "length": 6
                },
                {
                    "name": "LBORRESU",
                    "label": "Original Units",
                    "type": "Char",
                    "length": 7
                },
                {
                    "name": "LBORNRLO",
                    "label": "Reference Range Lower Limit in Orig Unit",
                    "type": "Char",
                    "length": 200
                },
                {
                    "name": "LBORNRHI",
                    "label": "Reference Range Upper Limit in Orig Unit",
                    "type": "Char",
                    "length": 200
                },
                {
                    "name": "LBSTRESC",
                    "label": "Character Result/Finding in Std Format",
                    "type": "Char",
                    "length": 8
                },
                {
                    "name": "LBSTRESN",
                    "label": "Numeric Result/Finding in Standard Units",
                    "type": "Num",
                    "length": 8
                },
                {
                    "name": "LBSTRESU",
                    "label": "Standard Units",
                    "type": "Char",
                    "length": 7
                },
                {
                    "name": "LBSTNRLO",
                    "label": "Reference Range Lower Limit-Std Units",
                    "type": "Num",
                    "length": 8
                },
                {
                    "name": "LBSTNRHI",
                    "label": "Reference Range Upper Limit-Std Units",
                    "type": "Num",
                    "length": 8
                },
                {
                    "name": "LBNRIND",
                    "label": "Reference Range Indicator",
                    "type": "Char",
                    "length": 8
                },
                {
                    "name": "LBLOBXFL",
                    "label": "Last Observation Before Exposure Flag",
                    "type": "Char",
                    "length": 1
                },
                {
                    "name": "VISITNUM",
                    "label": "Visit Number",
                    "type": "Num",
                    "length": 8
                },
                {
                    "name": "VISIT",
                    "label": "Visit Name",
                    "type": "Char",
                    "length": 200
                },
                {
                    "name": "LBDTC",
                    "label": "Date/Time of Specimen Collection",
                    "type": "Char",
                    "length": 19
                },
                {
                    "name": "LBDY",
                    "label": "Study Day of Date/Time of Collection",
                    "type": "Num",
                    "length": 8
                },
                {
                    "name": "LBENRTPT",
                    "label": "End Relative to Reference Time Point",
                    "type": "Char",
                    "length": 50
                },
                {
                    "name": "LBENTPT",
                    "label": "End Reference Time Point",
                    "type": "Char",
                    "length": 50
                }
            ],
            "records": {
                "STUDYID": [
                    "CDISCPILOT01",
                    "CDISCPILOT01",
                    "CDISCPILOT01",
                    "CDISCPILOT01",
                    "CDISCPILOT01"
                ],
                "DOMAIN": [
                    "LB",
                    "LB",
                    "LB",
                    "LB",
                    "LB"
                ],
                "USUBJID": [
                    "CDISC001",
                    "CDISC001",
                    "CDISC001",
                    "CDISC001",
                    "CDISC001"
                ],
                "LBSEQ": [
                    1,
                    2,
                    3,
                    4,
                    5
                ],
                "LBTESTCD": [
                    "ALB",
                    "ALP",
                    "ALB",
                    "ALP",
                    "BASO"
                ],
                "LBTEST": [
                    "Albumin",
                    "Alkaline Phosphatase",
                    "Albumin",
                    "Alkaline Phosphatase",
                    "Basophils"
                ],
                "LBCAT": [
                    "CHEMISTRY",
                    "CHEMISTRY",
                    "CHEMISTRY",
                    "CHEMISTRY",
                    "HEMATOLOGY"
                ],
                "LBORRES": [
                    "3.9",
                    "93",
                    "18",
                    "26",
                    "0.03"
                ],
                "LBORRESU": [
                    "g/dL",
                    "U/L",
                    "U/L",
                    "U/L",
                    "10^9/L"
                ],
                "LBORNRLO": [
                    "3.5",
                    "35",
                    "6",
                    "11",
                    "0"
                ],
                "LBORNRHI": [
                    "4.6",
                    "115",
                    "35",
                    "36",
                    "0.2"
                ],
                "LBSTRESC": [
                    "39",
                    "93",
                    "18",
                    "26",
                    "0.03"
                ],
                "LBSTRESN": [
                    39,
                    93,
                    18,
                    26,
                    0.03
                ],
                "LBSTRESU": [
                    "g/L",
                    "U/L",
                    "U/L",
                    "U/L",
                    "10^9/L"
                ],
                "LBSTNRLO": [
                    null,
                    35,
                    6,
                    null,
                    0
                ],
                "LBSTNRHI": [
                    null,
                    35,
                    null,
                    36,
                    0.1
                ],
                "LBNRIND": [
                    "NORMAL",
                    "NORMAL",
                    "NORMAL",
                    "NORMAL",
                    "NORMAL"
                ],
                "LBLOBXFL": [
                    "Y",
                    "Y",
                    "Y",
                    "Y",
                    "Y"
                ],
                "VISITNUM": [
                    1,
                    1,
                    1,
                    1,
                    1
                ],
                "VISIT": [
                    "SCREENING 1",
                    "SCREENING 1",
                    "SCREENING 1",
                    "SCREENING 1",
                    "SCREENING 1"
                ],
                "LBDTC": [
                    "2012-11-23T11:19",
                    "2012-11-23T10:20",
                    "2012-11-22T11:20",
                    "2012-10-23T11:20",
                    "2011-11-23T11:20"
                ],
                "LBDY": [
                    null,
                    null,
                    null,
                    null,
                    null
                ],
                "LBENRTPT": [
                    "COINCIDENT",
                    "COINCIDENT",
                    "",
                    "COINCIDENT",
                    ""
                ],
                "LBENTPT": [
                    "",
                    "",
                    "",
                    "",
                    ""
                ]
            }
        },
        {
            "filename": "fa.xpt",
            "label": "Findings About",
            "domain": "FA",
            "variables": [
                {
                    "name": "STUDYID",
                    "label": "Study Identifier",
                    "type": "Char",
                    "length": 12
                },
                {
                    "name": "DOMAIN",
                    "label": "Domain Abbreviation",
                    "type": "Char",
                    "length": 2
                },
                {
                    "name": "USUBJID",
                    "label": "Unique Subject Identifier",
                    "type": "Char",
                    "length": 8
                },
                {
                    "name": "FASEQ",
                    "label": "Sequence Number",
                    "type": "Num",
                    "length": 8
                },
                {
                    "name": "FALNKGRP",
                    "label": "Link Group ID",
                    "type": "Char",
                    "length": 200
                },
                {
                    "name": "FATESTCD",
                    "label": "Findings About Test Short Name",
                    "type": "Char",
                    "length": 5
                },
                {
                    "name": "FATEST",
                    "label": "Findings About Test Name",
                    "type": "Char",
                    "length": 20
                },
                {
                    "name": "FAOBJ",
                    "label": "Object of the Observation",
                    "type": "Char",
                    "length": 10
                },
                {
                    "name": "FAORRES",
                    "label": "Result or Finding in Original Units",
                    "type": "Char",
                    "length": 8
                },
                {
                    "name": "FASTRESC",
                    "label": "Character Result/Finding in Std Format",
                    "type": "Char",
                    "length": 8
                },
                {
                    "name": "FASTNRLO",
                    "label": "Reference Range Lower Limit-Std Units",
                    "type": "Num",
                    "length": 8
                },
                {
                    "name": "FASTNRHI",
                    "label": "Reference Range Upper Limit-Std Units",
                    "type": "Num",
                    "length": 8
                },
                {
                    "name": "FALOC",
                    "label": "Location of the Finding About",
                    "type": "Char",
                    "length": 3
                },
                {
                    "name": "VISITNUM",
                    "label": "Visit Number",
                    "type": "Num",
                    "length": 8
                },
                {
                    "name": "EPOCH",
                    "label": "Epoch",
                    "type": "Char",
                    "length": 9
                },
                {
                    "name": "FADTC",
                    "label": "Date/Time of Collection",
                    "type": "Char",
                    "length": 10
                },
                {
                    "name": "FADY",
                    "label": "Study Day of Date/Time of Collection",
                    "type": "Num",
                    "length": 8
                },
                {
                    "name": "FAENRTPT",
                    "label": "End Relative to Reference Time Point",
                    "type": "Char",
                    "length": 50
                },
                {
                    "name": "FAENTPT",
                    "label": "End Reference Time Point",
                    "type": "Char",
                    "length": 50
                }
            ],
            "records": {
                "STUDYID": [
                    "CDISCPILOT01",
                    "CDISCPILOT01",
                    "CDISCPILOT01",
                    "CDISCPILOT01",
                    "CDISCPILOT01"
                ],
                "DOMAIN": [
                    "FA",
                    "FA",
                    "FA",
                    "FA",
                    "FA"
                ],
                "USUBJID": [
                    "CDISC001",
                    "CDISC001",
                    "CDISC001",
                    "CDISC001",
                    "CDISC001"
                ],
                "FASEQ": [
                    1,
                    2,
                    3,
                    4,
                    5
                ],
                "FALNKGRP": [
                    "1",
                    "1",
                    "1",
                    "1",
                    "1"
                ],
                "FATESTCD": [
                    "COUNT",
                    "COUNT",
                    "COUNT",
                    "COUNT",
                    "COUNT"
                ],
                "FATEST": [
                    "Count",
                    "Count",
                    "Count",
                    "Count",
                    "Count"
                ],
                "FAOBJ": [
                    "MACULES",
                    "PAPULES",
                    "VESICLES",
                    "BLISTERS",
                    "LESIONS"
                ],
                "FAORRES": [
                    "1",
                    "2",
                    "3",
                    "1",
                    "2"
                ],
                "FASTRESC": [
                    "1",
                    "2",
                    "3",
                    "1",
                    "2"
                ],
                "FASTNRLO": [
                    0,
                    0,
                    null,
                    0,
                    null
                ],
                "FASTNRHI": [
                    1,
                    0,
                    null,
                    null,
                    0
                ],
                "FALOC": [
                    "ARM",
                    "ARM",
                    "ARM",
                    "ARM",
                    "ARM"
                ],
                "VISITNUM": [
                    null,
                    null,
                    null,
                    null,
                    null
                ],
                "EPOCH": [
                    "TREATMENT",
                    "TREATMENT",
                    "TREATMENT",
                    "TREATMENT",
                    "TREATMENT"
                ],
                "FADTC": [
                    "2012-12-02",
                    "2012-12-02",
                    "2012-12-02",
                    "2012-12-02",
                    "2012-12-02"
                ],
                "FADY": [
                    null,
                    null,
                    null,
                    null,
                    null
                ],
                "FAENRTPT": [
                    "AFTER",
                    "",
                    "AFTER",
                    "",
                    "AFTER"
                ],
                "FAENTPT": [
                    "",
                    "",
                    "",
                    "",
                    ""
                ]
            }
        },
        {
            "filename": "se.xpt",
            "label": "Subject Elements",
            "domain": "SE",
            "variables": [
                {
                    "name": "STUDYID",
                    "label": "Study Identifier",
                    "type": "Char",
                    "length": 12
                },
                {
                    "name": "DOMAIN",
                    "label": "Domain Abbreviation",
                    "type": "Char",
                    "length": 2
                },
                {
                    "name": "USUBJID",
                    "label": "Unique Subject Identifier",
                    "type": "Char",
                    "length": 8
                },
                {
                    "name": "SESEQ",
                    "label": "Sequence Number",
                    "type": "Num",
                    "length": 8
                },
                {
                    "name": "ETCD",
                    "label": "Element Code",
                    "type": "Char",
                    "length": 7
                },
                {
                    "name": "ELEMENT",
                    "label": "Description of Element",
                    "type": "Char",
                    "length": 26
                },
                {
                    "name": "EPOCH",
                    "label": "Epoch",
                    "type": "Char",
                    "length": 9
                },
                {
                    "name": "SESTDTC",
                    "label": "Start Date/Time of Element",
                    "type": "Char",
                    "length": 10
                },
                {
                    "name": "SEENDTC",
                    "label": "End Date/Time of Element",
                    "type": "Char",
                    "length": 10
                },
                {
                    "name": "SESTDY",
                    "label": "Study Day of Start of Element",
                    "type": "Num",
                    "length": 8
                },
                {
                    "name": "SEENDY",
                    "label": "Study Day of End of Element",
                    "type": "Num",
                    "length": 8
                }
            ],
            "records": {
                "STUDYID": [
                    "CDISCPILOT01"
                ],
                "DOMAIN": [
                    "SE"
                ],
                "USUBJID": [
                    "CDISC001"
                ],
                "SESEQ": [
                    1
                ],
                "ETCD": [
                    "SCREEN"
                ],
                "ELEMENT": [
                    "Screening"
                ],
                "EPOCH": [
                    "SCREENING"
                ],
                "SESTDTC": [
                    "2012-11-23"
                ],
                "SEENDTC": [
                    "2012-11-30"
                ],
                "SESTDY": [
                    -7
                ],
                "SEENDY": [
                    1
                ]
            }
        },
        {
            "filename": "sv.xpt",
            "label": "Subject Visits",
            "domain": "SV",
            "variables": [
                {
                    "name": "STUDYID",
                    "label": "Study Identifier",
                    "type": "Char",
                    "length": 12
                },
                {
                    "name": "DOMAIN",
                    "label": "Domain Abbreviation",
                    "type": "Char",
                    "length": 2
                },
                {
                    "name": "USUBJID",
                    "label": "Unique Subject Identifier",
                    "type": "Char",
                    "length": 8
                },
                {
                    "name": "VISITNUM",
                    "label": "Visit Number",
                    "type": "Num",
                    "length": 8
                },
                {
                    "name": "VISIT",
                    "label": "Visit Name",
                    "type": "Char",
                    "length": 200
                },
                {
                    "name": "SVSTDTC",
                    "label": "Start Date/Time of Visit",
                    "type": "Char",
                    "length": 10
                },
                {
                    "name": "SVENDTC",
                    "label": "End Date/Time of Visit",
                    "type": "Char",
                    "length": 10
                },
                {
                    "name": "SVSTDY",
                    "label": "Study Day of Start of Visit",
                    "type": "Num",
                    "length": 8
                },
                {
                    "name": "SVENDY",
                    "label": "Study Day of End of Visit",
                    "type": "Num",
                    "length": 8
                },
                {
                    "name": "SVUPDES",
                    "label": "Description of Unplanned Visit",
                    "type": "Char",
                    "length": 200
                }
            ],
            "records": {
                "STUDYID": [
                    "CDISCPILOT01",
                    "CDISCPILOT01",
                    "CDISCPILOT01",
                    "CDISCPILOT01",
                    "CDISCPILOT01",
                    "CDISCPILOT01",
                    "CDISCPILOT01",
                    "CDISCPILOT01",
                    "CDISCPILOT01",
                    "CDISCPILOT01"
                ],
                "DOMAIN": [
                    "SV",
                    "SV",
                    "SV",
                    "SV",
                    "SV",
                    "SV",
                    "SV",
                    "SV",
                    "SV",
                    "SV"
                ],
                "USUBJID": [
                    "CDISC001",
                    "CDISC001",
                    "CDISC001",
                    "CDISC001",
                    "CDISC001",
                    "CDISC001",
                    "CDISC001",
                    "CDISC001",
                    "CDISC001",
                    "CDISC001"
                ],
                "VISITNUM": [
                    1,
                    2,
                    3,
                    4,
                    5,
                    5.01,
                    7,
                    8,
                    101,
                    201
                ],
                "VISIT": [
                    "SCREENING 1",
                    "SCREENING 2",
                    "BASELINE",
                    "WEEK 2",
                    "WEEK 4",
                    "WEEK 4: UNSCHEDULED 01",
                    "WEEK 6",
                    "WEEK 8",
                    "EARLY DISCONTINUATION",
                    "EARLY DISCONTINUATION RETRIEVAL"
                ],
                "SVSTDTC": [
                    "2012-11-23",
                    "2012-11-28",
                    "2012-11-30",
                    "2012-12-13",
                    "2012-12-26",
                    "2012-12-28",
                    "2013-01-10",
                    "2013-01-23",
                    "2013-02-14",
                    "2013-05-20"
                ],
                "SVENDTC": [
                    "2012-11-23",
                    "2012-11-28",
                    "2012-11-30",
                    "2012-12-13",
                    "2012-12-26",
                    "2012-12-28",
                    "2013-01-10",
                    "2013-01-23",
                    "2013-02-14",
                    "2013-05-20"
                ],
                "SVSTDY": [
                    -7,
                    -2,
                    1,
                    14,
                    27,
                    29,
                    42,
                    55,
                    77,
                    172
                ],
                "SVENDY": [
                    -7,
                    -2,
                    1,
                    14,
                    27,
                    29,
                    42,
                    55,
                    77,
                    172
                ],
                "SVUPDES": [
                    "",
                    "",
                    "",
                    "",
                    "",
                    "UNSCHEDULED LABS",
                    "",
                    "",
                    "",
                    ""
                ]
            }
        },
        {
            "filename": "vs.xpt",
            "label": "Vital Signs",
            "domain": "VS",
            "variables": [
                {
                    "name": "STUDYID",
                    "label": "Study Identifier",
                    "type": "Char",
                    "length": 12
                },
                {
                    "name": "DOMAIN",
                    "label": "Domain Abbreviation",
                    "type": "Char",
                    "length": 2
                },
                {
                    "name": "USUBJID",
                    "label": "Unique Subject Identifier",
                    "type": "Char",
                    "length": 8
                },
                {
                    "name": "VSSEQ",
                    "label": "Sequence Number",
                    "type": "Num",
                    "length": 8
                },
                {
                    "name": "VSTESTCD",
                    "label": "Vital Signs Test Short Name",
                    "type": "Char",
                    "length": 8
                },
                {
                    "name": "VSTEST",
                    "label": "Vital Signs Test Name",
                    "type": "Char",
                    "length": 24
                },
                {
                    "name": "VSPOS",
                    "label": "Vital Signs Position of Subject",
                    "type": "Char",
                    "length": 8
                },
                {
                    "name": "VSORRES",
                    "label": "Result or Finding in Original Units",
                    "type": "Char",
                    "length": 8
                },
                {
                    "name": "VSORRESU",
                    "label": "Original Units",
                    "type": "Char",
                    "length": 9
                },
                {
                    "name": "VSSTRESC",
                    "label": "Character Result/Finding in Std Format",
                    "type": "Char",
                    "length": 200
                },
                {
                    "name": "VSSTRESN",
                    "label": "Numeric Result/Finding in Standard Units",
                    "type": "Num",
                    "length": 8
                },
                {
                    "name": "VSSTRESU",
                    "label": "Standard Units",
                    "type": "Char",
                    "length": 9
                },
                {
                    "name": "VSSTAT",
                    "label": "Completion Status",
                    "type": "Char",
                    "length": 8
                },
                {
                    "name": "VSLOC",
                    "label": "Location of Vital Signs Measurement",
                    "type": "Char",
                    "length": 11
                },
                {
                    "name": "VSLOBXFL",
                    "label": "Last Observation Before Exposure Flag",
                    "type": "Char",
                    "length": 1
                },
                {
                    "name": "VSREPNUM",
                    "label": "Repetition Number",
                    "type": "Num",
                    "length": 8
                },
                {
                    "name": "VISITNUM",
                    "label": "Visit Number",
                    "type": "Num",
                    "length": 8
                },
                {
                    "name": "VISIT",
                    "label": "Visit Name",
                    "type": "Char",
                    "length": 200
                },
                {
                    "name": "EPOCH",
                    "label": "Epoch",
                    "type": "Char",
                    "length": 9
                },
                {
                    "name": "VSDTC",
                    "label": "Date/Time of Measurements",
                    "type": "Char",
                    "length": 10
                },
                {
                    "name": "VSDY",
                    "label": "Study Day of Vital Signs",
                    "type": "Num",
                    "length": 8
                },
                {
                    "name": "MIDS",
                    "label": "Disease Milestone Instance Name",
                    "type": "Char",
                    "length": 8
                }
            ],
            "records": {
                "STUDYID": [
                    "CDISCPILOT01",
                    "CDISCPILOT01",
                    "CDISCPILOT01",
                    "CDISCPILOT01",
                    "CDISCPILOT01",
                    "CDISCPILOT01",
                    "CDISCPILOT01",
                    "CDISCPILOT01",
                    "CDISCPILOT01",
                    "CDISCPILOT01",
                    "CDISCPILOT01",
                    "CDISCPILOT01",
                    "CDISCPILOT01",
                    "CDISCPILOT01",
                    "CDISCPILOT01",
                    "CDISCPILOT01",
                    "CDISCPILOT01",
                    "CDISCPILOT01",
                    "CDISCPILOT01"
                ],
                "DOMAIN": [
                    "VS",
                    "VS",
                    "VS",
                    "VS",
                    "VS",
                    "VS",
                    "VS",
                    "VS",
                    "VS",
                    "VS",
                    "VS",
                    "VS",
                    "VS",
                    "VS",
                    "VS",
                    "VS",
                    "VS",
                    "VS",
                    "VS"
                ],
                "USUBJID": [
                    "CDISC001",
                    "CDISC001",
                    "CDISC001",
                    "CDISC001",
                    "CDISC001",
                    "CDISC001",
                    "CDISC001",
                    "CDISC001",
                    "CDISC001",
                    "CDISC001",
                    "CDISC001",
                    "CDISC001",
                    "CDISC001",
                    "CDISC001",
                    "CDISC001",
                    "CDISC001",
                    "CDISC001",
                    "CDISC001",
                    "CDISC001"
                ],
                "VSSEQ": [
                    1,
                    2,
                    3,
                    4,
                    5,
                    6,
                    7,
                    8,
                    9,
                    20,
                    21,
                    22,
                    23,
                    24,
                    25,
                    26,
                    27,
                    28,
                    29
                ],
                "VSTESTCD": [
                    "DIABP",
                    "DIABP",
                    "DIABP",
                    "DIABP",
                    "DIABP",
                    "DIA_BP",
                    "DIABP",
                    "DIABP",
                    "DIABP",
                    "PULSE",
                    "PULSE",
                    "PULSE",
                    "PULSE",
                    "PULSE",
                    "PULSE",
                    "PULSE",
                    "PULSE",
                    "PULSE",
                    "PULSE"
                ],
                "VSTEST": [
                    "Diastolic Blood Pressure",
                    "Diastolic Blood Pressure",
                    "Diastolic Blood Pressure",
                    "Diastolic Blood Pressure",
                    "Diastolic Blood Pressure",
                    "Diastolic Blood Pressure",
                    "Diastolic Blood Pressure",
                    "Diastolic Blood Pressure",
                    "Diastolic Blood Pressure",
                    "Pulse Rate",
                    "Pulse Rate",
                    "Pulse Rate",
                    "Pulse Rate",
                    "Pulse Rate",
                    "Pulse Rate",
                    "Pulse Rate",
                    "Pulse Rate",
                    "Pulse Rate",
                    "Pulse Rate"
                ],
                "VSPOS": [
                    "STANDING",
                    "STANDING",
                    "STANDING",
                    "STANDING",
                    "STANDING",
                    "SUPINE",
                    "STANDING",
                    "STANDING",
                    "SUPINE",
                    "STANDING",
                    "SUPINE",
                    "STANDING",
                    "STANDING",
                    "SUPINE",
                    "STANDING",
                    "STANDING",
                    "SUPINE",
                    "STANDING",
                    "STANDING"
                ],
                "VSORRES": [
                    "71",
                    "71",
                    "83",
                    "79",
                    "68",
                    "77",
                    "71",
                    "69",
                    "76",
                    "51",
                    "52",
                    "62",
                    "62",
                    "50",
                    "52",
                    "54",
                    "79",
                    "98",
                    "94"
                ],
                "VSORRESU": [
                    "mmHg",
                    "mmHg",
                    "mmHg",
                    "mmHg",
                    "mmHg",
                    "mmHg",
                    "mmHg",
                    "mmHg",
                    "mmHg",
                    "beats/min",
                    "beats/min",
                    "beats/min",
                    "beats/min",
                    "beats/min",
                    "beats/min",
                    "beats/min",
                    "beats/min",
                    "beats/min",
                    "beats/min"
                ],
                "VSSTRESC": [
                    "71",
                    "71",
                    "83",
                    "79",
                    "68",
                    "77",
                    "71",
                    "69",
                    "76",
                    "51",
                    "52",
                    "62",
                    "62",
                    "50",
                    "52",
                    "54",
                    "79",
                    "98",
                    "94"
                ],
                "VSSTRESN": [
                    71,
                    71,
                    83,
                    79,
                    68,
                    77,
                    71,
                    69,
                    76,
                    51,
                    52,
                    62,
                    62,
                    50,
                    52,
                    54,
                    79,
                    98,
                    94
                ],
                "VSSTRESU": [
                    "mmHg",
                    "mmHg",
                    "mmHg",
                    "mmHg",
                    "mmHg",
                    "mmHg",
                    "mmHg",
                    "mmHg",
                    "mmHg",
                    "beats/min",
                    "beats/min",
                    "beats/min",
                    "beats/min",
                    "beats/min",
                    "beats/min",
                    "beats/min",
                    "beats/min",
                    "beats/min",
                    "beats/min"
                ],
                "VSSTAT": [
                    "",
                    "",
                    "",
                    "",
                    "",
                    "",
                    "",
                    "",
                    "",
                    "",
                    "",
                    "",
                    "",
                    "",
                    "",
                    "",
                    "",
                    "",
                    ""
                ],
                "VSLOC": [
                    "",
                    "",
                    "",
                    "",
                    "",
                    "",
                    "",
                    "",
                    "",
                    "",
                    "",
                    "",
                    "",
                    "",
                    "",
                    "",
                    "",
                    "",
                    ""
                ],
                "VSLOBXFL": [
                    "",
                    "",
                    "Y",
                    "",
                    "",
                    "",
                    "",
                    "",
                    "",
                    "",
                    "",
                    "",
                    "",
                    "",
                    "",
                    "",
                    "",
                    "",
                    ""
                ],
                "VSREPNUM": [
                    null,
                    null,
                    null,
                    null,
                    null,
                    1,
                    2,
                    3,
                    1,
                    null,
                    1,
                    2,
                    3,
                    1,
                    2,
                    3,
                    1,
                    2,
                    3
                ],
                "VISITNUM": [
                    1,
                    2,
                    3,
                    4,
                    5,
                    7,
                    7,
                    7,
                    8,
                    5,
                    7,
                    7,
                    7,
                    8,
                    8,
                    8,
                    201,
                    201,
                    201
                ],
                "VISIT": [
                    "SCREENING 1",
                    "SCREENING 2",
                    "BASELINE",
                    "WEEK 2",
                    "WEEK 4",
                    "WEEK 6",
                    "WEEK 6",
                    "WEEK 6",
                    "WEEK 8",
                    "WEEK 4",
                    "WEEK 6",
                    "WEEK 6",
                    "WEEK 6",
                    "WEEK 8",
                    "WEEK 8",
                    "WEEK 8",
                    "EARLY DISCONTINUATION RETRIEVAL",
                    "EARLY DISCONTINUATION RETRIEVAL",
                    "EARLY DISCONTINUATION RETRIEVAL"
                ],
                "EPOCH": [
                    "SCREENING",
                    "SCREENING",
                    "SCREENING",
                    "TREATMENT",
                    "TREATMENT",
                    "TREATMENT",
                    "TREATMENT",
                    "TREATMENT",
                    "TREATMENT",
                    "TREATMENT",
                    "TREATMENT",
                    "TREATMENT",
                    "TREATMENT",
                    "TREATMENT",
                    "TREATMENT",
                    "TREATMENT",
                    "TREATMENT",
                    "TREATMENT",
                    "TREATMENT"
                ],
                "VSDTC": [
                    "2012-11-23",
                    "2012-11-28",
                    "2012-11-30",
                    "2012-12-13",
                    "2012-12-26",
                    "2013-01-10",
                    "2013-01-10",
                    "2013-01-10",
                    "2013-01-23",
                    "2012-12-26",
                    "2013-01-10",
                    "2013-01-10",
                    "2013-01-10",
                    "2013-01-23",
                    "2013-01-23",
                    "2013-01-23",
                    "2013-05-20",
                    "2013-05-20",
                    "2013-05-20"
                ],
                "VSDY": [
                    -7,
                    -2,
                    1,
                    14,
                    27,
                    42,
                    42,
                    42,
                    55,
                    27,
                    42,
                    42,
                    42,
                    55,
                    55,
                    55,
                    172,
                    172,
                    172
                ],
                "MIDS": [
                    "YES",
                    "YES",
                    "YES",
                    "YES",
                    "YES",
                    "YES",
                    "YES",
                    "YES",
                    "YES",
                    "YES",
                    "",
                    "",
                    "",
                    "",
                    "",
                    "",
                    "",
                    "",
                    ""
                ]
            }
        }
    ],
    "standard": {
        "product": "sdtmig",
        "version": "3-4"
    },
    "codelists": []
}