STUDYID,RDOMAIN,USUBJID,IDVAR,IDVARVAL,QNAM,QLABEL,QVAL,QORIG,QEVAL
CDISC-TEST,LB,CDISC-TEST-001,LBSEQ,1,BIOSIG1,Biological Significance 1,N,COLLECTED,CLINICAL STUDY SPONSOR
CDISC-TEST,LB,CDISC-TEST-001,LBSEQ,10,BIOSIG2,Biological Significance 2,Y,DERIVED,CLINICAL STUDY SPONSOR
CDISC-TEST,LB,CDISC-TEST-001,LBSEQ,11,BIOSIG3,Biological Significance 3,Y,,CLINICAL STUDY SPONSOR
CDISC-TEST,LB,CDISC-TEST-001,LBSEQ,12,BIOSIG4,Biological Significance 4,N,NOT AVAILABLE,CLINICAL STUDY SPONSOR
CDISC-TEST,LB,CDISC-TEST-001,LBSEQ,13,BIOSIG5,Biological Significance 5,N,COLLECTED,CLINICAL STUDY SPONSOR
CDISC-TEST,LB,CDISC-TEST-002,LBSEQ,1,BIOSIG1,Biological Significance 1,Y,DERIVED,CLINICAL STUDY SPONSOR
CDISC-TEST,LB,CDISC-TEST-002,LBSEQ,2,BIOSIG2,Biological Significance 2,Y,OTHER,CLINICAL STUDY SPONSOR
CDISC-TEST,LB,CDISC-TEST-002,LBSEQ,3,BIOSIG3,Biological Significance 3,Y,NOT AVAILABLE,CLINICAL STUDY SPONSOR
CDISC-TEST,LB,CDISC-TEST-002,LBSEQ,4,BIOSIG4,Biological Significance 4,Y,DERIVED,CLINICAL STUDY SPONSOR
CDISC-TEST,LB,CDISC-TEST-002,LBSEQ,5,BIOSIG5,Biological Significance 5,D,NOT AVAILABLE,CLINICAL STUDY SPONSOR
