STUDYID,DOMAIN,USUBJID,SUBJID,RFSTDTC,RFENDTC,RFICDTC,RFPENDTC,DTHDTC,DTHFL,SITEID,BRTHDTC,AGE,AGEU,SEX,RACE,ETHNIC,ARMCD,ARM,ACTARMCD,ACTARM,ARMNRS,ACTARMUD,COUNTRY
CDISCPILOT01,DM,CDISC001,1115,2012-12-01,2013-01-23,2012-11-23,2013-05-20,,,701,1928,84,YEARS,M,WHITE,NOT HISPANIC OR LATINO,ZAN_LOW,Zanomaline Low Dose (54 mg),ZAN_LOW,Zanomaline Low Dose (54 mg),,,USA
CDISCPILOT01,DM,CDISC002,1115,2012-11-03,2013-01-23,2012-11-23,2013-05-20,,,,,,,,,,,,,,,,
CDISCPILOT01,DM,CDISC003,1115,2012-12-02,2013-01-23,2012-11-23,2013-05-20,,,,,,,,,,,,,,,,
