STUDYID,DOMAIN,USUBJID,ARM,ACTARMCD,ACTARM,ARMNRS,ACTARMUD,RFSTDTC
ABC123,DM,123101,Drug A,A,Drug A,,,2005-10-13T10:15
ABC123,DM,123102,Drug B,B,Drug B,,,
ABC123,DM,123103,,,,SCREEN FAILURE,,
ABC123,DM,123104,,,,NOT ASSIGNED,,
ABC123,DM,123105,Drug A,,,"ASSIGNED, NOT TREATED",,
