STUDYID,RDOMAIN,USUBJID,POOLID,IDVAR,IDVARVAL,RELTYPE,RELID
CDISCPILOT01,PC,,,PCGRPID,,ONE,REL1
CDISCPILOT01,PP,,,PPGRPID,,MANY,REL1
CDISCPILOT01,CL,123456,,CLGRPID,FECES1,,REL2
CDISCPILOT01,LB,123456,,LBSEQ,47,,REL2
CDISCPILOT01,LB,654321,,LBSEQ,48,,REL2
CDISCPILOT01,CL,,CAGE1,CLGRPID,FECES1,,REL3
CDISCPILOT01,LB,B00001,,LBSEQ,47,,REL3
CDISCPILOT01,LB,B00002,,LBSEQ,48,,REL3
