dataset,variable,label,type,length
relrec.xpt,STUDYID,Study Identifier,Char,10
relrec.xpt,RDOMAIN,Related Domain Abbreviation,Char,2
relrec.xpt,USUBJID,Unique Subject Identifier,Char,14
relrec.xpt,POOLID,Pool Identifier,Char,14
relrec.xpt,IDVAR,Identifying Variable,Char,6
relrec.xpt,IDVARVAL,Identifying Variable Value,Char,4
relrec.xpt,RELTYPE,Relationship Type,Char,11
relrec.xpt,RELID,Relationship Identifier,Char,10
