STUDYID,DOMAIN,RDOMAIN,USUBJID,POOLID,COSEQ,IDVAR,IDVARVAL,COREF,COVAL,COEVAL,CODTC,CODY
1234,CO,EX,ZZ-23,,4,EXGRPID,COMBO1,PAGE 320-355,Medicine was administered under supervision of Sub investigator as PI was on leave,PRINCIPAL INVESTIGATOR,,
1234,CO,PE,,B,6,VISITNUM,4,,Visit was delayed by a day due to hospital holiday,PRINCIPAL INVESTIGATOR,,
1234,CO,LB,XX-11,,6,LBLOINC,comment with variable,,Visit was delayed by a day due to hospital holiday,,PRINCIPAL INVESTIGATOR,
