STUDYID,DOMAIN,USUBJID,AESEQ,AETERM,AEMODIFY,AEDECOD,AEBODSYS,AESEV,AESER,AEACN,AEREL,AEOUT,AESCONG,AESDISAB,AESDTH,AESHOSP,AESLIFE,EPOCH,AESTDTC,AEENDTC,AESTDY,AEENDY,AETPTREF,AERFTDTC,AEENRF
ABC123,AE,123101,1,POUNDING HEADACHE,HEADACHE,Headache,Nervous system disorders,SEVERE,N,NOT APPLICABLE,DEFINITELY NOT RELATED,RECOVERED/RESOLVED,,,,,,SCREENING,2005-10-12,2005-10-12,-1,-1,Reference point 1,2005-10-10,
ABC123,AE,123101,2,BACK PAIN FOR 6 HOURS,BACK PAIN,Back pain,Musculoskeletal and connective tissue disorders,MODERATE,N,DOSE REDUCED,PROBABLY RELATED,RECOVERED/RESOLVED,,,,,,TREATMENT,2005-10-13T13:05,2005-10-13T19:00,1,1,Reference point 2,2015-10-13,
ABC123,AE,123102,1,POUNDING HEADACHE,HEADACHE,Headache,Nervous system disorders,SEVERE,N,NOT APPLICABLE,DEFINITELY NOT RELATED,RECOVERED/RESOLVED,,,,,,SCREENING,2005-10-12,2005-10-12,-1,-1,Reference point 1,2005-10-10,
