{
    "rule": {
        "Authorities": [
            {
                "Organization": "CDISC",
                "Standards": [
                    {
                        "Name": "SDTMIG",
                        "References": [
                            {
                                "Citations": [
                                    {
                                        "Document": "IG v3.2",
                                        "Section": "3.2.2",
                                        "Cited_Guidance": "Using SDTM-specified variable labels for all standard domains"
                                    }
                                ],
                                "Origin": "SDTM and SDTMIG Conformance Rules",
                                "Version": "2.0",
                                "Rule_Identifier": {
                                    "Id": "CG0303",
                                    "Version": "1"
                                }
                            }
                        ],
                        "Version": "3.2"
                    },
                    {
                        "Name": "SENDIG",
                        "References": [
                            {
                                "Citations": [
                                    {
                                        "Document": "SENDIG v3.0",
                                        "Section": "4.2.1",
                                        "Cited_Guidance": "Sponsors must use the predefined SENDIG-standard labels in all standard domains"
                                    }
                                ],
                                "Origin": "SEND Conformance Rules",
                                "Version": "5.0",
                                "Rule_Identifier": {
                                    "Id": "SEND276",
                                    "Version": "1"
                                }
                            }
                        ],
                        "Version": "3.0"
                    },
                    {
                        "Name": "SENDIG",
                        "References": [
                            {
                                "Citations": [
                                    {
                                        "Document": "SENDIG v3.1",
                                        "Section": "4.2.1",
                                        "Cited_Guidance": "Sponsors must use the predefined SENDIG-standard labels in all standard domains"
                                    }
                                ],
                                "Origin": "SEND Conformance Rules",
                                "Version": "5.0",
                                "Rule_Identifier": {
                                    "Id": "SEND276",
                                    "Version": "1"
                                }
                            }
                        ],
                        "Version": "3.1"
                    },
                    {
                        "Name": "SENDIG",
                        "References": [
                            {
                                "Citations": [
                                    {
                                        "Document": "SENDIG v3.1.1",
                                        "Section": "4.2.1",
                                        "Cited_Guidance": "Sponsors must use the predefined SENDIG-standard labels in all standard domains"
                                    }
                                ],
                                "Origin": "SEND Conformance Rules",
                                "Version": "5.0",
                                "Rule_Identifier": {
                                    "Id": "SEND276",
                                    "Version": "1"
                                }
                            }
                        ],
                        "Version": "3.1.1"
                    },
                    {
                        "Name": "SENDIG-DART",
                        "References": [
                            {
                                "Citations": [
                                    {
                                        "Document": "SENDIG v3.1",
                                        "Section": "4.2.1",
                                        "Cited_Guidance": "Sponsors must use the predefined SENDIG-standard labels in all standard domains"
                                    }
                                ],
                                "Origin": "SEND Conformance Rules",
                                "Version": "5.0",
                                "Rule_Identifier": {
                                    "Id": "SEND276",
                                    "Version": "1"
                                }
                            }
                        ],
                        "Version": "1.1"
                    },
                    {
                        "Name": "SENDIG-DART",
                        "References": [
                            {
                                "Citations": [
                                    {
                                        "Document": "SENDIG v3.1.1",
                                        "Section": "4.2.1",
                                        "Cited_Guidance": "Sponsors must use the predefined SENDIG-standard labels in all standard domains"
                                    }
                                ],
                                "Origin": "SEND Conformance Rules",
                                "Version": "5.0",
                                "Rule_Identifier": {
                                    "Id": "SEND276",
                                    "Version": "1"
                                }
                            }
                        ],
                        "Version": "1.2"
                    },
                    {
                        "Name": "SENDIG-GENETOX",
                        "References": [
                            {
                                "Citations": [
                                    {
                                        "Document": "SENDIG v3.1.1",
                                        "Section": "4.2.1",
                                        "Cited_Guidance": "Sponsors must use the predefined SENDIG-standard labels in all standard domains"
                                    }
                                ],
                                "Origin": "SEND Conformance Rules",
                                "Version": "5.0",
                                "Rule_Identifier": {
                                    "Id": "SEND276",
                                    "Version": "1"
                                }
                            }
                        ],
                        "Version": "1.0"
                    }
                ]
            }
        ],
        "Check": {
            "all": [
                {
                    "name": "variable_name",
                    "operator": "equal_to",
                    "value": "library_variable_name"
                },
                {
                    "name": "library_variable_label",
                    "operator": "non_empty"
                },
                {
                    "name": "variable_label",
                    "operator": "not_equal_to",
                    "value": "library_variable_label"
                }
            ]
        },
        "Core": {
            "Id": "CORE-000398",
            "Status": "Published",
            "Version": "1"
        },
        "Description": "Raise an error when the variable label for an IG-variable does not correspond to the variable label in the Implementation Guide.",
        "Executability": "Fully Executable",
        "Outcome": {
            "Message": "The label of the variable does not correspond to the label in the IG",
            "Output_Variables": [
                "variable_name",
                "variable_label",
                "library_variable_label"
            ]
        },
        "Scope": {
            "Classes": {
                "Include": [
                    "ALL"
                ]
            },
            "Domains": {
                "Include": [
                    "ALL"
                ]
            }
        },
        "Sensitivity": "Dataset",
        "Rule_Type": "Variable Metadata Check against Library Metadata"
    },
    "datasets": [
        {
            "filename": "ae.xpt",
            "label": "Adverse Events",
            "domain": "AE",
            "variables": [
                {
                    "name": "STUDYID",
                    "label": "Study Identifier",
                    "type": "Char",
                    "length": 50
                },
                {
                    "name": "DOMAIN",
                    "label": "Domain Abbreviation",
                    "type": "Char",
                    "length": 50
                },
                {
                    "name": "USUBJID",
                    "label": "Unique Subject Identifier",
                    "type": "Char",
                    "length": 50
                },
                {
                    "name": "AESEQ",
                    "label": "Sequence Number",
                    "type": "Num",
                    "length": 8
                },
                {
                    "name": "AETERM",
                    "label": "Reported Term for the Adverse Event",
                    "type": "Char",
                    "length": 50
                },
                {
                    "name": "AEMODIFY",
                    "label": "Modified Reported Term",
                    "type": "Char",
                    "length": 50
                },
                {
                    "name": "AEDECOD",
                    "label": "Dictionary-Derived Term",
                    "type": "Char",
                    "length": 50
                },
                {
                    "name": "AEBODSYS",
                    "label": "Body System or Organ Class",
                    "type": "Char",
                    "length": 50
                },
                {
                    "name": "AESEV",
                    "label": "Severity/Intensity",
                    "type": "Char",
                    "length": 50
                },
                {
                    "name": "AESER",
                    "label": "Serious Event",
                    "type": "Char",
                    "length": 50
                },
                {
                    "name": "AEACN",
                    "label": "Action Taken with Study Treatment",
                    "type": "Char",
                    "length": 50
                },
                {
                    "name": "AEREL",
                    "label": "Causality",
                    "type": "Char",
                    "length": 50
                },
                {
                    "name": "AEOUT",
                    "label": "Outcome of Adverse Event",
                    "type": "Char",
                    "length": 50
                },
                {
                    "name": "AESCONG",
                    "label": "Congenital Anomaly or Birth Defect",
                    "type": "Char",
                    "length": 50
                },
                {
                    "name": "AESDISAB",
                    "label": "Persist or Signif Disability/Incapacity",
                    "type": "Char",
                    "length": 50
                },
                {
                    "name": "AESDTH",
                    "label": "Results in Death",
                    "type": "Char",
                    "length": 50
                },
                {
                    "name": "AESHOSP",
                    "label": "Requires or Prolongs Hospitalization",
                    "type": "Char",
                    "length": 50
                },
                {
                    "name": "AESLIFE",
                    "label": "Is Life Threatening",
                    "type": "Char",
                    "length": 50
                }
            ],
            "records": {
                "STUDYID": [
                    "TEST",
                    "TEST"
                ],
                "DOMAIN": [
                    "AE",
                    "AE"
                ],
                "USUBJID": [
                    "001",
                    "001"
                ],
                "AESEQ": [
                    2,
                    1
                ],
                "AETERM": [
                    "POUNDING HEADACHE",
                    "POUNDING HEADACHE"
                ],
                "AEMODIFY": [
                    "HEADACHE",
                    "HEADACHE"
                ],
                "AEDECOD": [
                    "Headache",
                    "Headache"
                ],
                "AEBODSYS": [
                    "Nervous system disorders",
                    "Nervous system disorders"
                ],
                "AESEV": [
                    "SEVERE",
                    "SEVERE"
                ],
                "AESER": [
                    "N",
                    "N"
                ],
                "AEACN": [
                    "NOT APPLICABLE",
                    "NOT APPLICABLE"
                ],
                "AEREL": [
                    "DEFINITELY NOT RELATED",
                    "DEFINITELY NOT RELATED"
                ],
                "AEOUT": [
                    "RECOVERED/RESOLVED",
                    "RECOVERED/RESOLVED"
                ],
                "AESCONG": [
                    "",
                    ""
                ],
                "AESDISAB": [
                    "",
                    ""
                ],
                "AESDTH": [
                    "",
                    ""
                ],
                "AESHOSP": [
                    "",
                    ""
                ],
                "AESLIFE": [
                    "",
                    ""
                ]
            }
        },
        {
            "filename": "lb.xpt",
            "label": "Laboratory Test Results",
            "domain": "LB",
            "variables": [
                {
                    "name": "STUDYID",
                    "label": "Study Identifier",
                    "type": "Char",
                    "length": 50
                },
                {
                    "name": "DOMAIN",
                    "label": "Domain Abbreviation",
                    "type": "Char",
                    "length": 50
                },
                {
                    "name": "USUBJID",
                    "label": "Unique Subject Identifier",
                    "type": "Char",
                    "length": 50
                },
                {
                    "name": "LBSEQ",
                    "label": "Sequence Number",
                    "type": "Num",
                    "length": 8
                },
                {
                    "name": "LBGRPID",
                    "label": "Group ID",
                    "type": "Char",
                    "length": 50
                },
                {
                    "name": "LBTESTCD",
                    "label": "Lab Test or Examination Short Name",
                    "type": "Char",
                    "length": 50
                },
                {
                    "name": "LBTEST",
                    "label": "Lab Test or Examination Name",
                    "type": "Char",
                    "length": 50
                },
                {
                    "name": "LBTSTCND",
                    "label": "Test Condition",
                    "type": "Char",
                    "length": 50
                },
                {
                    "name": "LBCAT",
                    "label": "Category for Lab Test",
                    "type": "Char",
                    "length": 50
                },
                {
                    "name": "LBSCAT",
                    "label": "Subcategory for Lab Test",
                    "type": "Char",
                    "length": 50
                },
                {
                    "name": "LBORRES",
                    "label": "Result or Finding in Original Units",
                    "type": "Char",
                    "length": 50
                },
                {
                    "name": "LBORRESU",
                    "label": "Original Units",
                    "type": "Char",
                    "length": 50
                },
                {
                    "name": "LBRESSCL",
                    "label": "Result Scale",
                    "type": "Char",
                    "length": 50
                },
                {
                    "name": "LBRESTYP",
                    "label": "Result Type",
                    "type": "Char",
                    "length": 50
                },
                {
                    "name": "LBCOLSRT",
                    "label": "Collected Summary Result Type",
                    "type": "Char",
                    "length": 50
                },
                {
                    "name": "LBORNRLO",
                    "label": "Reference Range Lower Limit in Orig Unit",
                    "type": "Char",
                    "length": 50
                },
                {
                    "name": "LBORNRHI",
                    "label": "Reference Range Upper Limit in Orig Unit",
                    "type": "Char",
                    "length": 50
                },
                {
                    "name": "LBLLOD",
                    "label": "Lower Limit of Detection",
                    "type": "Char",
                    "length": 50
                },
                {
                    "name": "LBSTRESC",
                    "label": "Character Result/Finding in Std Format",
                    "type": "Char",
                    "length": 50
                },
                {
                    "name": "LBSTRESN",
                    "label": "Numeric Result/Finding in Standard Units",
                    "type": "Num",
                    "length": 8
                },
                {
                    "name": "LBSTRESU",
                    "label": "Standard Units",
                    "type": "Char",
                    "length": 50
                },
                {
                    "name": "LBSTNRLO",
                    "label": "Reference Range Lower Limit-Std Units",
                    "type": "Num",
                    "length": 8
                },
                {
                    "name": "LBSTNRHI",
                    "label": "Reference Range Upper Limit-Std Units",
                    "type": "Num",
                    "length": 8
                },
                {
                    "name": "LBSTNRC",
                    "label": "Reference Range for Char Rslt-Std Units",
                    "type": "Char",
                    "length": 50
                },
                {
                    "name": "LBNRIND",
                    "label": "Reference Range Indicator",
                    "type": "Char",
                    "length": 50
                },
                {
                    "name": "LBSTAT",
                    "label": "Completion Status",
                    "type": "Char",
                    "length": 50
                },
                {
                    "name": "LBREASND",
                    "label": "Reason Test Not Done",
                    "type": "Char",
                    "length": 50
                },
                {
                    "name": "LBLOINC",
                    "label": "LOINC Code",
                    "type": "Char",
                    "length": 50
                },
                {
                    "name": "LBSPEC",
                    "label": "Specimen Type",
                    "type": "Char",
                    "length": 50
                },
                {
                    "name": "LBMETHOD",
                    "label": "Method of Test or Examination",
                    "type": "Char",
                    "length": 50
                },
                {
                    "name": "LBFAST",
                    "label": "Fasting Status",
                    "type": "Char",
                    "length": 50
                },
                {
                    "name": "LBDRVFL",
                    "label": "Derived Flag",
                    "type": "Char",
                    "length": 50
                },
                {
                    "name": "LBCLSIG",
                    "label": "Clinically Significant, Collected",
                    "type": "Char",
                    "length": 50
                }
            ],
            "records": {
                "STUDYID": [
                    "ABC123",
                    "ABC123",
                    "ABC123",
                    "ABC123",
                    "ABC123",
                    "ABC123"
                ],
                "DOMAIN": [
                    "LB",
                    "LB",
                    "LB",
                    "LB",
                    "LB",
                    "LB"
                ],
                "USUBJID": [
                    "ABC12301001",
                    "ABC12301001",
                    "ABC12301001",
                    "ABC12301001",
                    "ABC12301001",
                    "ABC12301001"
                ],
                "LBSEQ": [
                    1,
                    2,
                    3,
                    4,
                    5,
                    6
                ],
                "LBGRPID": [
                    "",
                    "A",
                    "A",
                    "A",
                    "A",
                    ""
                ],
                "LBTESTCD": [
                    "ALB",
                    "ALP",
                    "ALP",
                    "ALP",
                    "ALP",
                    "CRP"
                ],
                "LBTEST": [
                    "Albumin",
                    "Alkaline Phosphatase",
                    "Alkaline Phosphatase",
                    "Alkaline Phosphatase",
                    "Alkaline Phosphatase",
                    "C Reactive Protein"
                ],
                "LBTSTCND": [
                    "",
                    "",
                    "",
                    "",
                    "",
                    ""
                ],
                "LBCAT": [
                    "CHEMISTRY",
                    "CHEMISTRY",
                    "CHEMISTRY",
                    "CHEMISTRY",
                    "CHEMISTRY",
                    "CHEMISTRY"
                ],
                "LBSCAT": [
                    "",
                    "",
                    "",
                    "",
                    "",
                    ""
                ],
                "LBORRES": [
                    "30",
                    "398",
                    "350",
                    "",
                    "",
                    "2.5"
                ],
                "LBORRESU": [
                    "g/L",
                    "IU/L",
                    "IU/L",
                    "",
                    "",
                    "mg/L"
                ],
                "LBRESSCL": [
                    "QUANTITATIVE",
                    "QUANTITATIVE",
                    "QUANTITATIVE",
                    "QUANTITATIVE",
                    "QUANTITATIVE",
                    "QUANTITATIVE"
                ],
                "LBRESTYP": [
                    "MASS CONCENTRATION",
                    "CATALYTIC CONCENTRATION",
                    "CATALYTIC CONCENTRATION",
                    "CATALYTIC CONCENTRATION",
                    "CATALYTIC CONCENTRATION",
                    "MASS CONCENTRATION"
                ],
                "LBCOLSRT": [
                    "",
                    "",
                    "",
                    "MEAN, ARITHMETIC",
                    "",
                    ""
                ],
                "LBORNRLO": [
                    "35",
                    "40",
                    "40",
                    "",
                    "",
                    "0.5"
                ],
                "LBORNRHI": [
                    "50",
                    "160",
                    "160",
                    "",
                    "",
                    "10"
                ],
                "LBLLOD": [
                    "",
                    "",
                    "",
                    "",
                    "",
                    ""
                ],
                "LBSTRESC": [
                    "3",
                    "398",
                    "350",
                    "374",
                    "398",
                    "2.5"
                ],
                "LBSTRESN": [
                    3,
                    398,
                    350,
                    374,
                    398,
                    2.5
                ],
                "LBSTRESU": [
                    "g/dL",
                    "IU/L",
                    "IU/L",
                    "IU/L",
                    "IU/L",
                    "mg/L"
                ],
                "LBSTNRLO": [
                    3.5,
                    40,
                    40,
                    40,
                    40,
                    0.5
                ],
                "LBSTNRHI": [
                    5,
                    160,
                    160,
                    160,
                    160,
                    10
                ],
                "LBSTNRC": [
                    "",
                    "",
                    "",
                    "",
                    "",
                    ""
                ],
                "LBNRIND": [
                    "LOW",
                    "",
                    "",
                    "",
                    "",
                    ""
                ],
                "LBSTAT": [
                    "",
                    "",
                    "",
                    "",
                    "",
                    ""
                ],
                "LBREASND": [
                    "",
                    "",
                    "",
                    "",
                    "",
                    ""
                ],
                "LBLOINC": [
                    "2862-1",
                    "6768-6",
                    "6768-6",
                    "",
                    "",
                    "30522-7"
                ],
                "LBSPEC": [
                    "SERUM",
                    "SERUM",
                    "SERUM",
                    "SERUM",
                    "SERUM",
                    "SERUM"
                ],
                "LBMETHOD": [
                    "ELECTROPHORESIS",
                    "",
                    "",
                    "",
                    "",
                    ""
                ],
                "LBFAST": [
                    "Y",
                    "Y",
                    "Y",
                    "Y",
                    "Y",
                    "Y"
                ],
                "LBDRVFL": [
                    "",
                    "",
                    "",
                    "",
                    "Y",
                    ""
                ],
                "LBCLSIG": [
                    "N",
                    "",
                    "",
                    "",
                    "",
                    ""
                ]
            }
        },
        {
            "filename": "ec.xpt",
            "label": "Exposure as Collected",
            "domain": "EC",
            "variables": [
                {
                    "name": "STUDYID",
                    "label": "Study Identifier",
                    "type": "Char",
                    "length": 50
                },
                {
                    "name": "DOMAIN",
                    "label": "Domain Abbreviation",
                    "type": "Char",
                    "length": 50
                },
                {
                    "name": "USUBJID",
                    "label": "Unique Subject Identifier",
                    "type": "Char",
                    "length": 50
                },
                {
                    "name": "SPDEVID",
                    "label": "Sponsor Device Identifier",
                    "type": "Char",
                    "length": 200
                },
                {
                    "name": "ECSEQ",
                    "label": "Sequence Number",
                    "type": "Num",
                    "length": 8
                },
                {
                    "name": "ECTRT",
                    "label": "Name of Treatment",
                    "type": "Char",
                    "length": 50
                },
                {
                    "name": "ECPRESP",
                    "label": "Pre-Specified",
                    "type": "Char",
                    "length": 50
                },
                {
                    "name": "ECOCCUR",
                    "label": "Occurrence",
                    "type": "Char",
                    "length": 50
                },
                {
                    "name": "ECDOSE",
                    "label": "Dose",
                    "type": "Num",
                    "length": 8
                },
                {
                    "name": "ECDOSU",
                    "label": "Dose Units",
                    "type": "Char",
                    "length": 50
                },
                {
                    "name": "ECDOSFRM",
                    "label": "Dose Form",
                    "type": "Char",
                    "length": 50
                },
                {
                    "name": "ECDOSFRQ",
                    "label": "Dosing Frequency per Interval",
                    "type": "Char",
                    "length": 50
                },
                {
                    "name": "ECROUTE",
                    "label": "Route of Administration",
                    "type": "Char",
                    "length": 50
                },
                {
                    "name": "ECLOT",
                    "label": "Lot Number",
                    "type": "Char",
                    "length": 50
                },
                {
                    "name": "ECPSTRG",
                    "label": "Pharmaceutical Strength",
                    "type": "Num",
                    "length": 8
                },
                {
                    "name": "ECPSTRGU",
                    "label": "Pharmaceutical Strength Units",
                    "type": "Char",
                    "length": 50
                }
            ],
            "records": {
                "STUDYID": [
                    "CDISCPILOT01",
                    "CDISCPILOT01",
                    "CDISCPILOT01"
                ],
                "DOMAIN": [
                    "EC",
                    "EC",
                    "EC"
                ],
                "USUBJID": [
                    "CDISC001",
                    "CDISC001",
                    "CDISC001"
                ],
                "SPDEVID": [
                    "DEV0001",
                    "DEV0001",
                    "DEV0001"
                ],
                "ECSEQ": [
                    1,
                    2,
                    3
                ],
                "ECTRT": [
                    "ZANOMALINE",
                    "MULTIPLE",
                    "OTHERZ"
                ],
                "ECPRESP": [
                    "Y",
                    "Y",
                    "Y"
                ],
                "ECOCCUR": [
                    "Y",
                    "Y",
                    "Y"
                ],
                "ECDOSE": [
                    5,
                    5,
                    5
                ],
                "ECDOSU": [
                    "mL",
                    "mL",
                    "mL"
                ],
                "ECDOSFRM": [
                    "INJECTION",
                    "INJECTION",
                    "INJECTION"
                ],
                "ECDOSFRQ": [
                    "QD",
                    "QD",
                    "QD"
                ],
                "ECROUTE": [
                    "SUBCUTANEOUS",
                    "SUBCUTANEOUS",
                    "SUBCUTANEOUS"
                ],
                "ECLOT": [
                    "SDS580-359",
                    "SDS580-359",
                    "SDS580-359"
                ],
                "ECPSTRG": [
                    10.8,
                    10.8,
                    10.8
                ],
                "ECPSTRGU": [
                    "g/L",
                    "g/L",
                    "g/L"
                ]
            }
        }
    ],
    "standard": {
        "product": "sdtmig",
        "version": "3-2"
    },
    "codelists": []
}