dataset,variable,label,type,length
dd,STUDYID,Study Identifier,Char,12
dd,DOMAIN,Domain Abbreviation,Char,2
dd,USUBJID,Unique Subject Identifier,Char,8
dd,DDSEQ,Sequence Number,Num,8
dd,DDTESTCD,Test Short Name,Char,6
dd,DDTEST,Test Name,Char,24
dd,DDORRES,Result or Findings as Collected,Char,24
dd,DDSTRESC,,Standardized Result in Character Format,
