{
  "rule": {
    "_links": {},
    "core_id": "CDISC.SDTMIG.CG0168",
    "reference": [
      {
        "Origin": "SDTM and SDTMIG Conformance Rules",
        "Rule Identifier": {
          "Id": "CG0168",
          "Version": "1"
        },
        "Version": "2.0"
      }
    ],
    "sensitivity": "Record",
    "severity": "warning",
    "description": "Trigger error when IDVAR is not null and CODTC is not null",
    "authority": {
      "Organization": "CDISC"
    },
    "standards": [
      {
        "Name": "SDTMIG",
        "Version": "3.4"
      }
    ],
    "classes": {
      "Include": [
        "Special-Purpose"
      ]
    },
    "domains": {
      "Include": [
        "CO"
      ]
    },
    "rule_type": "Populated Values",
    "conditions": {
      "all": [
        {
          "name": "get_dataset",
          "operator": "non_empty",
          "value": {
            "target": "IDVAR"
          }
        },
        {
          "name": "get_dataset",
          "operator": "non_empty",
          "value": {
            "target": "CODTC"
          }
        }
      ]
    },
    "output_variables": [
      "USUBJID",
      "IDVAR",
      "CODTC"
    ],
    "actions": [
      {
        "name": "generate_dataset_error_objects",
        "params": {
          "message": "CODTC is populated when IDVAR is also populated"
        }
      }
    ]
  },
  "datasets": [
    {
      "filename": "co.xpt",
      "domain": "CO",
      "variables": [
        {
          "name": "STUDYID",
          "label": "Study Identifier",
          "type": "Char",
          "length": 50
        },
        {
          "name": "DOMAIN",
          "label": "Domain Abbreviation",
          "type": "Char",
          "length": 50
        },
        {
          "name": "RDOMAIN",
          "label": "Related Domain Abbreviation",
          "type": "Char",
          "length": 50
        },
        {
          "name": "USUBJID",
          "label": "Unique Subject Identifier",
          "type": "Char",
          "length": 50
        },
        {
          "name": "COSEQ",
          "label": "Sequence Number",
          "type": "Num",
          "length": 8
        },
        {
          "name": "IDVAR",
          "label": "Identifying Variable",
          "type": "Char",
          "length": 50
        },
        {
          "name": "IDVARVAL",
          "label": "Identifying Variable Value",
          "type": "Char",
          "length": 50
        },
        {
          "name": "COREF",
          "label": "Comment Reference",
          "type": "Char",
          "length": 50
        },
        {
          "name": "COVAL",
          "label": "Comment",
          "type": "Char",
          "length": 50
        },
        {
          "name": "COEVAL",
          "label": "Evaluator",
          "type": "Char",
          "length": 50
        },
        {
          "name": "COEVALID",
          "label": "Evaluator Identifier",
          "type": "Char",
          "length": 50
        },
        {
          "name": "CODTC",
          "label": "Date/Time of Comment",
          "type": "Char",
          "length": 50
        },
        {
          "name": "CODY",
          "label": "Study Day of Comment",
          "type": "Num",
          "length": 8
        }
      ],
      "records": {
        "STUDYID": [
          "1234",
          "1234"
        ],
        "DOMAIN": [
          "CO",
          "CO"
        ],
        "RDOMAIN": [
          "",
          "AE"
        ],
        "USUBJID": [
          "AB-59",
          "AB-59"
        ],
        "COSEQ": [
          1,
          2
        ],
        "IDVAR": [
          "",
          "AESEQ"
        ],
        "IDVARVAL": [
          "",
          "7"
        ],
        "COREF": [
          "",
          "PAGE 650"
        ],
        "COVAL": [
          "Comment text",
          "First 200\r\ncharacters"
        ],
        "COEVAL": [
          "PRINCIPAL\r\nINVESTIGATOR",
          "PRINCIPAL\r\nINVESTIGATOR"
        ],
        "COEVALID": [
          "",
          ""
        ],
        "CODTC": [
          "2003-11-\r\n08",
          ""
        ],
        "CODY": [
          null,
          null
        ]
      }
    }
  ]
}