{
    "rule": {
      "_links": {},
      "core_id": "CDISC.SDTMIG.CG0060",
      "reference": [
        {
          "Origin": "SDTM and SDTMIG Conformance Rules",
          "Rule Identifier": {
            "Id": "CG0060",
            "Version": "1"
          },
          "Version": "2.0"
        }
      ],
      "sensitivity": "Dataset",
      "severity": "error",
      "description": "Raise an error when --STTPT is present in dataset and --STRTPT is not present in dataset.",
      "authority": {
        "Organization": "CDISC"
      },
      "standards": [
        {
          "Name": "SDTMIG",
          "Version": "3.4"
        }
      ],
      "classes": {
        "Include": [
          "All"
        ]
      },
      "domains": {
        "Include": [
          "All"
        ]
      },
      "rule_type": "Variable Presence",
      "conditions": {
        "all": [
          {
            "name": "get_dataset",
            "operator": "exists",
            "value": {
              "target": "--STTPT"
            }
          },
          {
            "name": "get_dataset",
            "operator": "not_exists",
            "value": {
              "target": "--STRTPT"
            }
          }
        ]
      },
      "output_variables": [
        "--STTPT"
      ],
      "actions": [
        {
          "name": "generate_dataset_error_objects",
          "params": {
            "message": "--STTPT is present in dataset, but --STRTPT is not present in dataset."
          }
        }
      ]
    },
    "datasets": [
      {
        "filename": "pr.xpt",
        "label": "Procedures",
        "domain": "PR",
        "variables": [
          {
            "name": "STUDYID",
            "label": "Study Identifier",
            "type": "Char",
            "length": 50
          },
          {
            "name": "DOMAIN",
            "label": "Domain Abbreviation",
            "type": "Char",
            "length": 50
          },
          {
            "name": "USUBJID",
            "label": "Unique Subject Identifier",
            "type": "Char",
            "length": 50
          },
          {
            "name": "PRSEQ",
            "label": "Sequence Number",
            "type": "Num",
            "length": 8
          },
          {
            "name": "PRSPID",
            "label": "Sponsor-Defined Identifier",
            "type": "Char",
            "length": 50
          },
          {
            "name": "PRTRT",
            "label": "Reported Name of Procedure",
            "type": "Char",
            "length": 50
          },
          {
            "name": "PRDECOD",
            "label": "Standardized Procedure Name",
            "type": "Char",
            "length": 50
          },
          {
            "name": "PRCAT",
            "label": "Category",
            "type": "Char",
            "length": 50
          },
          {
            "name": "PRPRESP",
            "label": "Pre-specified",
            "type": "Char",
            "length": 50
          },
          {
            "name": "PROCCUR",
            "label": "Occurrence",
            "type": "Char",
            "length": 50
          },
          {
            "name": "PRINDC",
            "label": "Indication",
            "type": "Char",
            "length": 50
          },
          {
            "name": "VISITNUM",
            "label": "Visit Number",
            "type": "Num",
            "length": 8
          },
          {
            "name": "VISIT",
            "label": "Visit Name",
            "type": "Char",
            "length": 50
          },
          {
            "name": "VISITDY",
            "label": "Planned Study Day of Visit",
            "type": "Num",
            "length": 8
          },
          {
            "name": "EPOCH",
            "label": "Epoch",
            "type": "Char",
            "length": 50
          },
          {
            "name": "PRSTDTC",
            "label": "Start Date/Time of Procedure",
            "type": "Char",
            "length": 50
          },
          {
            "name": "PRENDTC",
            "label": "End Date/Time of Procedure",
            "type": "Char",
            "length": 50
          },
          {
            "name": "PRSTDY",
            "label": "Study Day of Start of Procedure",
            "type": "Num",
            "length": 8
          },
          {
            "name": "PRENDY",
            "label": "Study Day of End of Procedure",
            "type": "Num",
            "length": 8
          },
          {
            "name": "PRSTRTPT",
            "label": "Start Relative to Reference Time Point",
            "type": "Char",
            "length": 50
          },
          {
            "name": "PRSTTPT",
            "label": "Start Reference Time Point",
            "type": "Char",
            "length": 50
          },
          {
            "name": "PRENRTPT",
            "label": "End Relative to Reference Time Point",
            "type": "Char",
            "length": 50
          },
          {
            "name": "PRENTPT",
            "label": "End Reference Time Point",
            "type": "Char",
            "length": 50
          }
        ],
        "records": {
          "STUDYID": [
            "CDISCPILOT01",
            "CDISCPILOT01",
            "CDISCPILOT01",
            "CDISCPILOT01",
            "CDISCPILOT01",
            "CDISCPILOT01",
            "CDISCPILOT01",
            "CDISCPILOT01"
          ],
          "DOMAIN": [
            "PR",
            "PR",
            "PR",
            "PR",
            "PR",
            "PR",
            "PR",
            "PR"
          ],
          "USUBJID": [
            "CDISC009",
            "CDISC010",
            "CDISC011",
            "CDISC012",
            "CDISC013",
            "CDISC014",
            "CDISC016",
            "CDISC017"
          ],
          "PRSEQ": [
            1,
            2,
            3,
            1,
            10,
            11,
            5,
            6
          ],
          "PRSPID": [
            "1",
            "2",
            "5",
            "",
            "3",
            "4",
            "",
            ""
          ],
          "PRTRT": [
            "CT SCAN",
            "DOPPLER LEFT LEG PERFORMED : CONCLUSION: NO EVIDENCE OF DVT",
            "ECHOCARDIOGRAPHY",
            "ELECTROENCEPHALOGRAPHY",
            "ENDDOSCOPIC CHOLECYSTECTOMY",
            "EXTRACTION 23, 22 TEETH",
            "EXTRACTION OF 2 WISDOM TEETH",
            "FIBROGASTRODUODENOSCOPY"
          ],
          "PRDECOD": [
            "Computerised tomogram",
            "Ultrasound Doppler",
            "Echocardiogram",
            "Electroencephalogram",
            "Cholecystectomy",
            "Tooth extraction",
            "Wisdom teeth removal",
            "Oesophagogastroduodenoscopy"
          ],
          "PRCAT": [
            "IMAGING",
            "PROCEDURE",
            "PROCEDURE",
            "MRI",
            "PROCEDURE",
            "PROCEDURE",
            "PHYSICAL EXAMINATION",
            "PHYSICAL EXAMINATION"
          ],
          "PRPRESP": [
            "",
            "",
            "",
            "Y",
            "",
            "",
            "Y",
            "Y"
          ],
          "PROCCUR": [
            "",
            "",
            "",
            "Y",
            "",
            "",
            "Y",
            "Y"
          ],
          "PRINDC": [
            "ADVERSE EVENT",
            "MEDICAL HISTORY",
            "ADVERSE EVENT",
            "",
            "ADVERSE EVENT",
            "OTHER",
            "",
            ""
          ],
          "VISITNUM": [
            "",
            "",
            "",
            2,
            "",
            "",
            1,
            2
          ],
          "VISIT": [
            "",
            "",
            "",
            "DAY 1",
            "",
            "",
            "SCREENING",
            "DAY 1"
          ],
          "VISITDY": [
            "",
            "",
            "",
            1,
            "",
            "",
            -28,
            1
          ],
          "EPOCH": [
            "TREATMENT",
            "TREATMENT",
            "TREATMENT",
            "FOLLOW-UP",
            "TREATMENT",
            "TREATMENT",
            "SCREENING",
            "SCREENING"
          ],
          "PRSTDTC": [
            "2021-04-28",
            "2021-05-04",
            "2021-05-04",
            "2021-06-05",
            "2021-01-30",
            "2021-02-04",
            "2021-05-07",
            "2021-06-01"
          ],
          "PRENDTC": [
            "2021-04-28",
            "2021-05-04",
            "2021-05-04",
            "",
            "2021-01-30",
            "2021-02-04",
            "",
            ""
          ],
          "PRSTDY": [
            111,
            117,
            117,
            1,
            23,
            28,
            -25,
            1
          ],
          "PRENDY": [
            111,
            117,
            117,
            "",
            23,
            28,
            "",
            ""
          ],
          "PRSTRTPT": [
            "AFTER",
            "AFTER",
            "AFTER",
            "",
            "",
            "",
            "",
            ""
          ],
          "PRSTTPT": [
            "2021-01-08",
            "2021-01-10",
            "2020-01-08",
            "",
            "",
            "",
            "",
            ""
          ],
          "PRENRTPT": [
            "",
            "",
            "",
            "",
            "",
            "",
            "",
            ""
          ],
          "PRENTPT": [
            "",
            "",
            "",
            "",
            "",
            "",
            "",
            ""
          ]
        }
      }
    ]
  }