STUDYID,DOMAIN,USUBJID,SPDEVID,EXSEQ,EXTRT,EXDOSE,EXDOSU,EXDOSFRM,EXDOSFRQ,EXROUTE,EXLOT,EPOCH,EXSTDTC,EXENDTC,EXSTDY,EXENDY
ABC123,EX,123101,DEV0001,1,ZANOMALINE,54,mg,INJECTION,QD,SUBCUTANEOUS,SDS580-359,TREATMENT,2005-10-13,2005-10-13,1,1
ABC123,EX,123101,DEV0001,2,ZANOMALINE,54,mg,INJECTION,QD,SUBCUTANEOUS,SDS580-359,TREATMENT,2005-10-14,2005-10-14,2,2
ABC123,EX,123101,DEV0001,3,ZANOMALINE,54,mg,INJECTION,QD,SUBCUTANEOUS,SDS580-359,TREATMENT,2005-10-15,2005-10-15,3,3
ABC123,EX,123101,DEV0001,4,ZANOMALINE,54,mg,INJECTION,QD,SUBCUTANEOUS,SDS580-359,TREATMENT,2005-10-16,2005-10-16,4,4
ABC123,EX,123101,DEV0001,5,ZANOMALINE,54,mg,INJECTION,QD,SUBCUTANEOUS,SDS580-359,TREATMENT,2005-10-17,2005-10-17,5,5
ABC123,EX,123101,DEV0001,6,ZANOMALINE,54,mg,INJECTION,QD,SUBCUTANEOUS,SDS580-359,TREATMENT,2005-10-18,2005-10-18,6,6
ABC123,EX,123101,DEV0001,7,ZANOMALINE,54,mg,INJECTION,QD,SUBCUTANEOUS,SDS580-359,TREATMENT,2005-10-19,2005-10-19,7,7
ABC123,EX,123101,DEV0001,8,ZANOMALINE,54,mg,INJECTION,QD,SUBCUTANEOUS,SDS580-359,TREATMENT,2005-10-20,2005-10-20,8,8
ABC123,EX,123101,DEV0001,9,ZANOMALINE,54,mg,INJECTION,QD,SUBCUTANEOUS,SDS580-359,TREATMENT,2005-10-21,2005-10-21,9,9
ABC123,EX,123101,DEV0001,10,ZANOMALINE,54,mg,INJECTION,QD,SUBCUTANEOUS,SDS580-359,TREATMENT,2005-10-22,2005-10-22,10,10
ABC123,EX,123101,DEV0001,11,ZANOMALINE,54,mg,INJECTION,QD,SUBCUTANEOUS,SDS580-359,TREATMENT,2005-10-23,2005-10-23,11,11
ABC123,EX,123101,DEV0001,12,ZANOMALINE,54,mg,INJECTION,QD,SUBCUTANEOUS,SDS580-359,TREATMENT,2005-10-24,2005-10-24,12,12
ABC123,EX,123101,DEV0001,13,ZANOMALINE,54,mg,INJECTION,QD,SUBCUTANEOUS,SDS580-359,TREATMENT,2005-10-25,2005-10-25,13,13
ABC123,EX,123101,DEV0001,14,ZANOMALINE,54,mg,INJECTION,QD,SUBCUTANEOUS,SDS580-359,TREATMENT,2005-10-26,2005-10-26,14,14
ABC123,EX,123101,DEV0001,15,ZANOMALINE,54,mg,INJECTION,QD,SUBCUTANEOUS,SDS580-359,TREATMENT,2005-10-27,2005-10-27,15,15
ABC123,EX,123101,DEV0001,16,ZANOMALINE,54,mg,INJECTION,QD,SUBCUTANEOUS,SDS580-359,TREATMENT,2005-10-28,2005-10-28,16,16
ABC123,EX,123101,DEV0001,17,ZANOMALINE,54,mg,INJECTION,QD,SUBCUTANEOUS,SDS580-359,TREATMENT,2005-10-29,2005-10-29,17,17
ABC123,EX,123101,DEV0001,18,ZANOMALINE,54,mg,INJECTION,QD,SUBCUTANEOUS,SDS580-359,TREATMENT,2005-10-30,2005-10-30,18,18
ABC123,EX,123101,DEV0001,19,ZANOMALINE,54,mg,INJECTION,QD,SUBCUTANEOUS,SDS580-359,TREATMENT,2005-10-31,2005-10-31,19,19
ABC123,EX,123101,DEV0001,20,ZANOMALINE,54,mg,INJECTION,QD,SUBCUTANEOUS,SDS580-359,TREATMENT,2005-11-01,2005-11-01,20,20
ABC123,EX,123101,DEV0001,21,ZANOMALINE,54,mg,INJECTION,QD,SUBCUTANEOUS,SDS580-359,TREATMENT,2005-11-02,2005-11-02,21,21
ABC123,EX,123101,DEV0001,22,ZANOMALINE,54,mg,INJECTION,QD,SUBCUTANEOUS,SDS580-359,TREATMENT,2005-11-03,2005-11-03,22,22
ABC123,EX,123101,DEV0001,23,ZANOMALINE,54,mg,INJECTION,QD,SUBCUTANEOUS,SDS580-359,TREATMENT,2005-11-04,2005-11-04,23,23
ABC123,EX,123101,DEV0001,24,ZANOMALINE,54,mg,INJECTION,QD,SUBCUTANEOUS,SDS580-359,TREATMENT,2005-11-05,2005-11-05,24,24
ABC123,EX,123101,DEV0001,25,ZANOMALINE,54,mg,INJECTION,QD,SUBCUTANEOUS,SDS580-359,TREATMENT,2005-11-06,2005-11-06,25,25
ABC123,EX,123101,DEV0001,26,ZANOMALINE,54,mg,INJECTION,QD,SUBCUTANEOUS,SDS580-359,TREATMENT,2005-11-07,2005-11-07,26,26
ABC123,EX,123101,DEV0001,27,ZANOMALINE,54,mg,INJECTION,QD,SUBCUTANEOUS,SDS580-359,TREATMENT,2005-11-08,2005-11-08,27,27
ABC123,EX,123101,DEV0001,28,ZANOMALINE,54,mg,INJECTION,QD,SUBCUTANEOUS,SDS580-359,TREATMENT,2005-11-09,2005-11-09,28,28
ABC123,EX,123101,DEV0001,29,ZANOMALINE,54,mg,INJECTION,QD,SUBCUTANEOUS,SDS580-359,TREATMENT,2005-11-10,2005-11-10,29,29
ABC123,EX,123101,DEV0001,30,ZANOMALINE,54,mg,INJECTION,QD,SUBCUTANEOUS,SDS580-359,TREATMENT,2005-11-11,2005-11-11,30,30
ABC123,EX,123101,DEV0001,31,ZANOMALINE,54,mg,INJECTION,QD,SUBCUTANEOUS,SDS580-359,TREATMENT,2005-11-12,2005-11-12,31,31
ABC123,EX,123101,DEV0001,32,ZANOMALINE,54,mg,INJECTION,QD,SUBCUTANEOUS,SDS580-359,TREATMENT,2005-11-13,2005-11-13,32,32
ABC123,EX,123101,DEV0001,33,ZANOMALINE,54,mg,INJECTION,QD,SUBCUTANEOUS,SDS580-359,TREATMENT,2005-11-14,2005-11-14,33,33
ABC123,EX,123101,DEV0001,34,ZANOMALINE,54,mg,INJECTION,QD,SUBCUTANEOUS,SDS580-359,TREATMENT,2005-11-15,2005-11-15,34,34
ABC123,EX,123101,DEV0001,35,ZANOMALINE,54,mg,INJECTION,QD,SUBCUTANEOUS,SDS580-359,TREATMENT,2005-11-16,2005-11-16,35,35
ABC123,EX,123101,DEV0001,36,ZANOMALINE,54,mg,INJECTION,QD,SUBCUTANEOUS,SDS580-359,TREATMENT,2005-11-17,2005-11-17,36,36
ABC123,EX,123101,DEV0001,37,ZANOMALINE,54,mg,INJECTION,QD,SUBCUTANEOUS,SDS580-359,TREATMENT,2005-11-18,2005-11-18,37,37
ABC123,EX,123101,DEV0001,38,ZANOMALINE,54,mg,INJECTION,QD,SUBCUTANEOUS,SDS580-359,TREATMENT,2005-11-19,2005-11-19,38,38
ABC123,EX,123101,DEV0001,39,ZANOMALINE,54,mg,INJECTION,QD,SUBCUTANEOUS,SDS580-359,TREATMENT,2005-11-20,2005-11-20,39,39
ABC123,EX,123101,DEV0001,40,ZANOMALINE,54,mg,INJECTION,QD,SUBCUTANEOUS,SDS580-359,TREATMENT,2005-11-21,2005-11-21,40,40
ABC123,EX,123101,DEV0001,41,ZANOMALINE,54,mg,INJECTION,QD,SUBCUTANEOUS,SDS580-359,TREATMENT,2005-11-22,2005-11-22,41,41
ABC123,EX,123101,DEV0001,42,ZANOMALINE,54,mg,INJECTION,QD,SUBCUTANEOUS,SDS580-359,TREATMENT,2005-11-23,2005-11-23,42,42
ABC123,EX,123101,DEV0001,43,ZANOMALINE,54,mg,INJECTION,QD,SUBCUTANEOUS,SDS580-359,TREATMENT,2005-11-24,2005-11-24,43,43
ABC123,EX,123101,DEV0001,44,ZANOMALINE,54,mg,INJECTION,QD,SUBCUTANEOUS,SDS580-359,TREATMENT,2005-11-25,2005-11-25,44,44
ABC123,EX,123101,DEV0001,45,ZANOMALINE,54,mg,INJECTION,QD,SUBCUTANEOUS,SDS580-359,TREATMENT,2005-11-26,2005-11-26,45,45
ABC123,EX,123101,DEV0001,46,ZANOMALINE,54,mg,INJECTION,QD,SUBCUTANEOUS,SDS580-359,TREATMENT,2005-11-27,2005-11-27,46,46
ABC123,EX,123101,DEV0001,47,ZANOMALINE,54,mg,INJECTION,QD,SUBCUTANEOUS,SDS580-359,TREATMENT,2005-11-28,2005-11-28,47,47
ABC123,EX,123101,DEV0001,48,ZANOMALINE,54,mg,INJECTION,QD,SUBCUTANEOUS,SDS580-359,TREATMENT,2005-11-29,2005-11-29,48,48
ABC123,EX,123101,DEV0001,49,ZANOMALINE,54,mg,INJECTION,QD,SUBCUTANEOUS,SDS580-359,TREATMENT,2005-11-30,2005-11-30,49,49
ABC123,EX,123101,DEV0001,50,ZANOMALINE,54,mg,INJECTION,QD,SUBCUTANEOUS,SDS580-359,TREATMENT,2005-12-01,2005-12-01,50,50
ABC123,EX,123101,DEV0001,51,ZANOMALINE,54,mg,INJECTION,QD,SUBCUTANEOUS,SDS580-359,TREATMENT,2005-12-02,2005-12-02,51,51
ABC123,EX,123101,DEV0001,52,ZANOMALINE,54,mg,INJECTION,QD,SUBCUTANEOUS,SDS580-359,TREATMENT,2005-12-03,2005-12-03,52,52
ABC123,EX,123101,DEV0001,53,ZANOMALINE,54,mg,INJECTION,QD,SUBCUTANEOUS,SDS580-359,TREATMENT,2005-12-04,2005-12-04,53,53
ABC123,EX,123102,DEV0001,54,ZANOMALINE,54,mg,INJECTION,QD,SUBCUTANEOUS,SDS580-359,TREATMENT,2005-12-05,2005-12-05,,
ABC123,EX,123103,DEV0001,55,ZANOMALINE,54,mg,INJECTION,QD,SUBCUTANEOUS,SDS580-359,TREATMENT,2005-12-06,2005-12-06,,
