dataset,variable,label,type,length
cm.xpt,STUDYID,Study Identifier,Char,50
cm.xpt,DOMAIN,Domain Abbreviation,Char,50
cm.xpt,USUBJID,Unique Subject Identifier,Char,50
cm.xpt,CMSEQ,Sequence Number,Num,8
cm.xpt,CMTRT,"Reported Name of Drug, Med, or Therapy",Char,50
cm.xpt,CMINDC,Indication,Char,50
cm.xpt,CMDOSE,Dose per Administration,Num,8
cm.xpt,CMDOSU,Dose Units,Char,50
cm.xpt,CMDOSFRQ,Dosing Frequency per Interval,Char,50
cm.xpt,CMROUTE,Route of Administration,Char,50
cm.xpt,EPOCH,Epoch,Char,50
cm.xpt,CMDTC,Date/Time of Collection,Char,50
cm.xpt,CMSTDTC,Start Date/Time of Medication,Char,50
cm.xpt,CMENDTC,End Date/Time of Medication,Char,50
cm.xpt,CMDY,Study Day of Date/Time of Collection,Num,8
cm.xpt,CMSTDY,Study Day of Start of Medication,Num,8
cm.xpt,CMENDY,Study Day of End of Medication,Num,8
cm.xpt,CMSTRTPT,Start Relative to Reference Time Point,Char,50
cm.xpt,CMSTTPT,Start Reference Time Point,Char,50
cm.xpt,CMENRTPT,End Relative to Reference Time Point,Char,50
cm.xpt,CMENTPT,End Reference Time Point,Char,50
ce.xpt,STUDYID,Study Identifier,Char,50
ce.xpt,DOMAIN,Domain Abbreviation,Char,50
ce.xpt,USUBJID,Unique Subject Identifier,Char,50
ce.xpt,CESEQ,Sequence Number,Num,8
ce.xpt,CEGRPID,Group ID,Char,50
ce.xpt,CETERM,Reported Term for the Clinical Event,Char,50
ce.xpt,CESEV,Severity/Intensity,Char,50
ce.xpt,EPOCH,Epoch,Char,50
ce.xpt,CEDTC,Start Date/Time of Event Collection,Char,50
ce.xpt,CESTDTC,Start Date/Time of Clinical Event,Char,50
ce.xpt,CEENDTC,End Date/Time of Clinical Event,Char,50
ce.xpt,CEDY,Study Day of Date/Time of Collection,Num,8
ce.xpt,CESTDY,Study Day of Start of Event,Num,8
ce.xpt,CEENDY,Study Day of End of Event,Num,8
ce.xpt,CESTRTPT,Start Relative to Reference Time Point,Char,50
ce.xpt,CESTTPT,Start Reference Time Point,Char,50
ce.xpt,CEENRTPT,End Relative to Reference Time Point,Char,50
ce.xpt,CEENTPT,End Reference Time Point,Char,50
lb.xpt,STUDYID,Study Identifier,Char,12
lb.xpt,DOMAIN,Domain Abbreviation,Char,2
lb.xpt,USUBJID,Unique Subject Identifier,Char,8
lb.xpt,LBSEQ,Sequence Number,Num,8
lb.xpt,LBTESTCD,Lab Test or Examination Short Name,Char,7
lb.xpt,LBTEST,Lab Test or Examination Name,Char,39
lb.xpt,LBCAT,Category for Lab Test,Char,10
lb.xpt,LBORRES,Result or Finding in Original Units,Char,6
lb.xpt,LBORRESU,Original Units,Char,7
lb.xpt,LBORNRLO,Reference Range Lower Limit in Orig Unit,Char,200
lb.xpt,LBORNRHI,Reference Range Upper Limit in Orig Unit,Char,200
lb.xpt,LBSTRESC,Character Result/Finding in Std Format,Char,8
lb.xpt,LBSTRESN,Numeric Result/Finding in Standard Units,Num,8
lb.xpt,LBSTRESU,Standard Units,Char,7
lb.xpt,LBSTNRLO,Reference Range Lower Limit-Std Units,Num,8
lb.xpt,LBSTNRHI,Reference Range Upper Limit-Std Units,Num,8
lb.xpt,LBNRIND,Reference Range Indicator,Char,8
lb.xpt,LBLOBXFL,Last Observation Before Exposure Flag,Char,1
lb.xpt,VISITNUM,Visit Number,Num,8
lb.xpt,VISIT,Visit Name,Char,200
lb.xpt,LBDTC,Date/Time of Specimen Collection,Char,19
lb.xpt,LBDY,Study Day of Date/Time of Collection,Num,8
lb.xpt,LBENRTPT,End Relative to Reference Time Point,Char,50
lb.xpt,LBENTPT,End Reference Time Point,Char,50
fa.xpt,STUDYID,Study Identifier,Char,12
fa.xpt,DOMAIN,Domain Abbreviation,Char,2
fa.xpt,USUBJID,Unique Subject Identifier,Char,8
fa.xpt,FASEQ,Sequence Number,Num,8
fa.xpt,FALNKGRP,Link Group ID,Char,200
fa.xpt,FATESTCD,Findings About Test Short Name,Char,5
fa.xpt,FATEST,Findings About Test Name,Char,20
fa.xpt,FAOBJ,Object of the Observation,Char,10
fa.xpt,FAORRES,Result or Finding in Original Units,Char,8
fa.xpt,FASTRESC,Character Result/Finding in Std Format,Char,8
fa.xpt,FASTNRLO,Reference Range Lower Limit-Std Units,Num,8
fa.xpt,FASTNRHI,Reference Range Upper Limit-Std Units,Num,8
fa.xpt,FALOC,Location of the Finding About,Char,3
fa.xpt,VISITNUM,Visit Number,Num,8
fa.xpt,EPOCH,Epoch,Char,9
fa.xpt,FADTC,Date/Time of Collection,Char,10
fa.xpt,FADY,Study Day of Date/Time of Collection,Num,8
fa.xpt,FAENRTPT,End Relative to Reference Time Point,Char,50
fa.xpt,FAENTPT,End Reference Time Point,Char,50
se.xpt,STUDYID,Study Identifier,Char,12
se.xpt,DOMAIN,Domain Abbreviation,Char,2
se.xpt,USUBJID,Unique Subject Identifier,Char,8
se.xpt,SESEQ,Sequence Number,Num,8
se.xpt,ETCD,Element Code,Char,7
se.xpt,ELEMENT,Description of Element,Char,26
se.xpt,EPOCH,Epoch,Char,9
se.xpt,SESTDTC,Start Date/Time of Element,Char,10
se.xpt,SEENDTC,End Date/Time of Element,Char,10
se.xpt,SESTDY,Study Day of Start of Element,Num,8
se.xpt,SEENDY,Study Day of End of Element,Num,8
sv.xpt,STUDYID,Study Identifier,Char,12
sv.xpt,DOMAIN,Domain Abbreviation,Char,2
sv.xpt,USUBJID,Unique Subject Identifier,Char,8
sv.xpt,VISITNUM,Visit Number,Num,8
sv.xpt,VISIT,Visit Name,Char,200
sv.xpt,SVSTDTC,Start Date/Time of Visit,Char,10
sv.xpt,SVENDTC,End Date/Time of Visit,Char,10
sv.xpt,SVSTDY,Study Day of Start of Visit,Num,8
sv.xpt,SVENDY,Study Day of End of Visit,Num,8
sv.xpt,SVUPDES,Description of Unplanned Visit,Char,200
vs.xpt,STUDYID,Study Identifier,Char,12
vs.xpt,DOMAIN,Domain Abbreviation,Char,2
vs.xpt,USUBJID,Unique Subject Identifier,Char,8
vs.xpt,VSSEQ,Sequence Number,Num,8
vs.xpt,VSTESTCD,Vital Signs Test Short Name,Char,8
vs.xpt,VSTEST,Vital Signs Test Name,Char,24
vs.xpt,VSPOS,Vital Signs Position of Subject,Char,8
vs.xpt,VSORRES,Result or Finding in Original Units,Char,8
vs.xpt,VSORRESU,Original Units,Char,9
vs.xpt,VSSTRESC,Character Result/Finding in Std Format,Char,200
vs.xpt,VSSTRESN,Numeric Result/Finding in Standard Units,Num,8
vs.xpt,VSSTRESU,Standard Units,Char,9
vs.xpt,VSSTAT,Completion Status,Char,8
vs.xpt,VSLOC,Location of Vital Signs Measurement,Char,11
vs.xpt,VSLOBXFL,Last Observation Before Exposure Flag,Char,1
vs.xpt,VSREPNUM,Repetition Number,Num,8
vs.xpt,VISITNUM,Visit Number,Num,8
vs.xpt,VISIT,Visit Name,Char,200
vs.xpt,EPOCH,Epoch,Char,9
vs.xpt,VSDTC,Date/Time of Measurements,Char,10
vs.xpt,VSDY,Study Day of Vital Signs,Num,8
vs.xpt,MIDS,Disease Milestone Instance Name,Char,8
