Dataset,Record,Variable,Value
SE,,$column_order_from_dataset,"['Unnamed: 0', 'STUDYID', 'DOMAIN', 'USUBJID', 'SESEQ', 'ETCD', 'ELEMENT', 'EPOCH', 'SESTDTC', 'SEENDTC', 'SESTDY', 'SEENDY']"
SE,,$column_order_from_library,"['STUDYID', 'DOMAIN', 'USUBJID', 'SESEQ', 'ETCD', 'ELEMENT', 'TAETORD', 'EPOCH', 'SESTDTC', 'SEENDTC', 'SESTDY', 'SEENDY', 'SEUPDES']"
