STUDYID,DOMAIN,USUBJID,DSSEQ,DSTERM,DSDECOD,DSCAT,DSSCAT,EPOCH,DSDTC,DSSTDTC,DSDY,DSSTDY
CDISC-TEST,DS,S001,1,COMPLETED,COMPLETED,DISPOSITION EVENT,PRODUCT EXPOSURE,TREATMENT,,,,
CDISC-TEST,DS,S001,2,COMPLETED,COMPLETED,DISPOSITION EVENT,PRODUCT EXPOSURE1,TREATMENT,,,,
CDISC-TEST,DS,S002,1,COMPLETED,COMPLETED,DISPOSITION EVENT,PRODUCT EXPOSURE2,TREATMENT,,,,
CDISC-TEST,DS,S002,2,COMPLETED,COMPLETED,DISPOSITION EVENT,PRODUCT EXPOSURE,SCREENING,,,,
CDISC-TEST,DS,S002,3,COMPLETED,COMPLETED,DISPOSITION EVENT,PRODUCT EXPOSURE,SCREENING2,,,,
CDISC-TEST,DS,S003,4,COMPLETED,COMPLETED,DISPOSITION EVENT,PRODUCT EXPOSURE,SCREENING,,,,
