STUDYID,USUBJID,SUBJID,SITEID,ASEQ,TRTP,TRTPN,TRTA,TRTAN,TRTPGy,TRTPGyN,TRTAGy,TRTAGyN,DOSEP,DOSCUMP,DOSEA,DOSCUMA,DOSEU,ADT,ATM,ADTM,ADY,ADTF,ATMF,ASTDT,ASTTM,ASTDTM,ASTDY,ASTDTF,ASTTMF,AENDT,AENTM,AENDTM,AENDY,AENDTF,AENTMF,AVISIT,AVISITN,ATPT,ATPTN,ATPTREF,APHASE,APHASEN,APERIOD,APERIODC,ASPER,ASPERC,ARELTM,ARELTMU,APERSDT,APERSTM,APERSDTM,APERSDTF,APERSTMF,APEREDT,APERETM,APEREDTM,APEREDTF,APERETMF,ASPRSDT,ASPRSTM,ASPRSDTM,ASPRSDTF,ASPRSTMF,ASPREDT,ASPRETM,ASPREDTM,ASPREDTF,ASPRETMF,PHSDT,PHSTM,PHSDTM,PHSDTF,PHSTMF,PHEDT,PHETM,PHEDTM,PHEDTF,PHETMF,*DT,*TM,*DTM,*ADY,*DTF,*TMF,*SDT,*STM,*SDTM,*SDY,*SDTF,*STMF,*EDT,*ETM,*EDTM,*EDY,*EDTF,*ETMF,PARAM,PARAMCD,PARAMN,PARCATy,PARCATyN,AVAL,AVALC,AVALCATy,AVALCAyN,BASE,BASEC,BASECATy,BASECAyN,BASETYPE,CHG,CHGCATy,CHGCATyN,PCHG,PCHGCATy,PCHGCAyN,R2BASE,R2AyLO,R2AyHI,SHIFT1,SHIFT1N,SHIFT1,SHIFTyN,BCHG,BCHGCATy,BCHGCAyN,PBCHG,PBCHGCAy,PBCHGCyN,CRIT1,CRIT1FL,CRIT1FN,MCRIT1,MCRIT1ML,MCRIT1MN,DTYPE,AWRANGE,AWTARGET,AWTDIFF,AWLO,AWHI,AWU,STARTDT,STARTDTM,STARTDTF,STARTTMF,CNSR,EVNTDESC,CNSDTDSC,ATOXGR,ATOXGRN,BTOXGR,BTOXGRN,ANRIND,BNRIND,ANRLO,ANRLOC,ANRHI,ANRHIC,AyLO,AyLOC,AyHI,AyHIC,AyIND,ByIND,ATOXGRL,ATOXGRLN,ATOXGRH,ATOXGRHN,BTOXGRL,BTOXGRLN,BTOXGRH,BTOXGRHN,ATOXDSCL,ATOXDSCH,ABLFL,ABLFN,ANL01FL,ANL01FN,ONTRTFL,ONTRTFN,LVOTFL,LVOTFN,ITTRFL,SAFRFL,FASRFL,PPROTRFL,COMPLRFL,ITTPFL,SAFPFL,FASPFL,PPROTPFL,COMPLPFL,SRCDOM,SRCVAR,SRCSEQ,VISIT,AGE
,,ABC-0001,,,,,,,,,,,,,,,,,,,-14,,,,,,,,,,,,,,,Baseline,-2,,,,,,,,,,,,,,,,,,,,,,,,,,,,,,,,,,,,,,,,,,,,,,,,,,,,,,,,,,,,ALT,,,,,30,,,,29,,,,,.,,,,,,,,,,,,,,,,,,,ALT > 8*ULN,N,2,ALT Grade Increase,,,,,,,,,,,,,,,,,0,,0,,Normal ,Normal,2,,35,,,,,,,,,,,,,,,,,,Y,,Y,1,,,,,,,,,,,,,,,,,,SCREENING,28
,,ABC-0001,,,,,,,,,,,,,,,,,,,34,,,,,,,,,,,,,,,Week 5,0,,,,,,,,,,,,,,,,,,,,,,,,,,,,,,,,,,,,,,,,,,,,,,,,,,,,,,,,,,,,ALT,,,,,81,,,,30,,,,,0,,,,,,,,,Normal to High,3,0 to 1,1,,,,,,,ALT > 8*ULN,N,2,ALT Grade Increase,Increase of 1 Grade,1,,,,,,,,,,,,,,,1,,0,,Normal ,Normal,2,,35,,,,,,,,,,,,,,,,,,,,Y,1,,,,,,,,,,,,,,,,,,WEEK 5,42
