{
    "rule": {
        "Authorities": [
            {
                "Organization": "CDISC",
                "Standards": [
                    {
                        "Name": "SDTMIG",
                        "References": [
                            {
                                "Citations": [
                                    {
                                        "Document": "IG v3.2",
                                        "Item": "Specification",
                                        "Section": "5",
                                        "Cited_Guidance": "Name of the Arm to which the subject was assigned."
                                    }
                                ],
                                "Origin": "SDTM and SDTMIG Conformance Rules",
                                "Version": "2.0",
                                "Rule_Identifier": {
                                    "Id": "CG0120",
                                    "Version": "1"
                                }
                            },
                            {
                                "Citations": [
                                    {
                                        "Document": "IG v3.2",
                                        "Item": "Specification",
                                        "Section": "5",
                                        "Cited_Guidance": "Name of the Arm to which the subject was assigned."
                                    }
                                ],
                                "Origin": "SDTM and SDTMIG Conformance Rules",
                                "Version": "2.0",
                                "Rule_Identifier": {
                                    "Id": "CG0121",
                                    "Version": "1"
                                }
                            }
                        ],
                        "Version": "3.2"
                    }
                ]
            }
        ],
        "Check": {
            "all": [
                {
                    "name": "ARM",
                    "operator": "is_not_contained_by",
                    "value": [
                        "Screen Failure",
                        "Not Assigned",
                        "SCREEN FAILURE",
                        "NOT ASSIGNED"
                    ]
                },
                {
                    "name": "ARM",
                    "operator": "is_not_contained_by",
                    "value": "$arm_list"
                }
            ]
        },
        "Core": {
            "Id": "CORE-000368",
            "Status": "Published",
            "Version": "1"
        },
        "Description": "ARM values in Demographics are restricted to ARM values in Trial Arms when not equal to \"Screen Failure\" or \"Not Assigned\"",
        "Executability": "Fully Executable",
        "Operations": [
            {
                "domain": "TA",
                "id": "$arm_list",
                "name": "ARM",
                "operator": "distinct"
            }
        ],
        "Outcome": {
            "Message": "ARM is not in TA.ARM, but ARM in DM does not equal Screen Failure or Not Assigned.",
            "Output_Variables": [
                "ARM"
            ]
        },
        "Scope": {
            "Classes": {
                "Include": [
                    "SPECIAL PURPOSE"
                ]
            },
            "Domains": {
                "Include": [
                    "DM"
                ]
            }
        },
        "Sensitivity": "Record",
        "Rule_Type": "Record Data"
    },
    "datasets": [
        {
            "filename": "ta.xpt",
            "label": "Trial Arms",
            "domain": "TA",
            "variables": [
                {
                    "name": "STUDYID",
                    "label": "Study Identifier",
                    "type": "Char",
                    "length": 12
                },
                {
                    "name": "DOMAIN",
                    "label": "Domain Abbreviation",
                    "type": "Char",
                    "length": 2
                },
                {
                    "name": "ARMCD",
                    "label": "Planned Arm Code",
                    "type": "Char",
                    "length": 8
                },
                {
                    "name": "ARM",
                    "label": "Description of Planned Arm",
                    "type": "Char",
                    "length": 28
                },
                {
                    "name": "TAETORD",
                    "label": "Planned Order of Element within Arm",
                    "type": "Num",
                    "length": 8
                },
                {
                    "name": "ETCD",
                    "label": "Element Code",
                    "type": "Char",
                    "length": 7
                },
                {
                    "name": "ELEMENT",
                    "label": "Description of Element",
                    "type": "Char",
                    "length": 26
                },
                {
                    "name": "TABRANCH",
                    "label": "Branch",
                    "type": "Char",
                    "length": 200
                },
                {
                    "name": "TATRANS",
                    "label": "Transition Rule",
                    "type": "Char",
                    "length": 200
                },
                {
                    "name": "EPOCH",
                    "label": "Epoch",
                    "type": "Char",
                    "length": 9
                }
            ],
            "records": {
                "STUDYID": [
                    "CDISCPILOT01",
                    "CDISCPILOT01",
                    "CDISCPILOT01",
                    "CDISCPILOT01",
                    "CDISCPILOT01",
                    "CDISCPILOT01",
                    "CDISCPILOT01",
                    "CDISCPILOT01"
                ],
                "DOMAIN": [
                    "TA",
                    "TA",
                    "TA",
                    "TA",
                    "TA",
                    "TA",
                    "TA",
                    "TA"
                ],
                "ARMCD": [
                    "PLACEBO",
                    "PLACEBO",
                    "ZAN_LOW",
                    "ZAN_LOW",
                    "ZAN_HIGH",
                    "ZAN_HIGH",
                    "ZAN_HIGH",
                    "ZAN_HIGH"
                ],
                "ARM": [
                    "Placebo",
                    "Placebo",
                    "Zanomaline Low Dose (54 mg)",
                    "Zanomaline Low Dose (54 mg)",
                    "Zanomaline High Dose (81 mg)",
                    "Zanomaline High Dose (81 mg)",
                    "Zanomaline High Dose (81 mg)",
                    "Zanomaline High Dose (81 mg)"
                ],
                "TAETORD": [
                    1,
                    2,
                    1,
                    2,
                    1,
                    2,
                    3,
                    4
                ],
                "ETCD": [
                    "SCREEN",
                    "PLACEBO",
                    "SCREEN",
                    "LOW",
                    "SCREEN",
                    "TITRATE",
                    "HIGH",
                    "TITRATE"
                ],
                "ELEMENT": [
                    "Screening",
                    "Placebo",
                    "Screening",
                    "Zanomaline 54 mg",
                    "Screening",
                    "Zanomaline 54 mg Titration",
                    "Zanomaline 81 mg",
                    "Zanomaline 54 mg Titration"
                ],
                "TABRANCH": [
                    "Randomized to Placebo",
                    "",
                    "Randomized to Zanomaline Low Dose",
                    "",
                    "Randomized to Zanomaline High Dose",
                    "",
                    "",
                    ""
                ],
                "TATRANS": [
                    "",
                    "",
                    "",
                    "",
                    "",
                    "",
                    "",
                    ""
                ],
                "EPOCH": [
                    "SCREENING",
                    "TREATMENT",
                    "SCREENING",
                    "TREATMENT",
                    "SCREENING",
                    "TREATMENT",
                    "TREATMENT",
                    "TREATMENT"
                ]
            }
        },
        {
            "filename": "dm.xpt",
            "label": "Demographics",
            "domain": "DM",
            "variables": [
                {
                    "name": "STUDYID",
                    "label": "Study Identifier",
                    "type": "Char",
                    "length": 12
                },
                {
                    "name": "DOMAIN",
                    "label": "Domain Abbreviation",
                    "type": "Char",
                    "length": 2
                },
                {
                    "name": "USUBJID",
                    "label": "Unique Subject Identifier",
                    "type": "Char",
                    "length": 20
                },
                {
                    "name": "SUBJID",
                    "label": "Subject Identifier for the Study",
                    "type": "Char",
                    "length": 12
                },
                {
                    "name": "RFSTDTC",
                    "label": "Subject Reference Start Date/Time",
                    "type": "Char",
                    "length": 10
                },
                {
                    "name": "RFENDTC",
                    "label": "Subject Reference End Date/Time",
                    "type": "Char",
                    "length": 10
                },
                {
                    "name": "RFXSTDTC",
                    "label": "Date/Time of First Study Treatment",
                    "type": "Char",
                    "length": 10
                },
                {
                    "name": "RFXENDTC",
                    "label": "Date/Time of Last Study Treatment",
                    "type": "Char",
                    "length": 10
                },
                {
                    "name": "RFICDTC",
                    "label": "Date/Time of Informed Consent",
                    "type": "Char",
                    "length": 10
                },
                {
                    "name": "RFPENDTC",
                    "label": "Date/Time of End of Participation",
                    "type": "Char",
                    "length": 10
                },
                {
                    "name": "DTHDTC",
                    "label": "Date/Time of Death",
                    "type": "Char",
                    "length": 10
                },
                {
                    "name": "DTHFL",
                    "label": "Subject Death Flag",
                    "type": "Char",
                    "length": 1
                },
                {
                    "name": "SITEID",
                    "label": "Study Site Identifier",
                    "type": "Char",
                    "length": 3
                },
                {
                    "name": "BRTHDTC",
                    "label": "Date/Time of Birth",
                    "type": "Char",
                    "length": 10
                },
                {
                    "name": "AGE",
                    "label": "Age",
                    "type": "Num",
                    "length": 8
                },
                {
                    "name": "AGETXT",
                    "label": "Age Text",
                    "type": "Char",
                    "length": 5
                },
                {
                    "name": "AGEU",
                    "label": "Age Units",
                    "type": "Char",
                    "length": 5
                },
                {
                    "name": "SEX",
                    "label": "Sex",
                    "type": "Char",
                    "length": 1
                },
                {
                    "name": "RACE",
                    "label": "Race",
                    "type": "Char",
                    "length": 41
                },
                {
                    "name": "ETHNIC",
                    "label": "Ethnicity",
                    "type": "Char",
                    "length": 22
                },
                {
                    "name": "ARMCD",
                    "label": "Planned Arm Code",
                    "type": "Char",
                    "length": 8
                },
                {
                    "name": "ARM",
                    "label": "Description of Planned Arm",
                    "type": "Char",
                    "length": 28
                },
                {
                    "name": "ACTARMCD",
                    "label": "Actual Arm Code",
                    "type": "Char",
                    "length": 8
                },
                {
                    "name": "ACTARM",
                    "label": "Description of Actual Arm",
                    "type": "Char",
                    "length": 28
                },
                {
                    "name": "ARMNRS",
                    "label": "Reason Arm and/or Actual Arm is Null",
                    "type": "Char",
                    "length": 14
                },
                {
                    "name": "ACTARMUD",
                    "label": "Description of Unplanned Actual Arm",
                    "type": "Char",
                    "length": 200
                },
                {
                    "name": "COUNTRY",
                    "label": "Country",
                    "type": "Char",
                    "length": 3
                }
            ],
            "records": {
                "STUDYID": [
                    "ABC",
                    "ABC",
                    "ABC",
                    "ABC",
                    "ABC",
                    "ABC"
                ],
                "DOMAIN": [
                    "DM",
                    "DM",
                    "DM",
                    "DM",
                    "DM",
                    "DM"
                ],
                "USUBJID": [
                    "015246-076-0003-00003",
                    "015246-300-0004-00002",
                    "015246-999-0004-9999",
                    "015246-076-0003-00004",
                    "015246-300-0004-00012",
                    "015246-999-0004-1000"
                ],
                "SUBJID": [
                    "076000300003",
                    "300000400002",
                    "99900049999",
                    "076000300003",
                    "300000400002",
                    "99900049999"
                ],
                "RFSTDTC": [
                    "2018-04-02T11:32",
                    "2018-05-08T11:20",
                    "2018-05-08T11:20",
                    "2018-04-02T11:32",
                    "2018-05-08T11:20",
                    "2018-05-08T11:20"
                ],
                "RFENDTC": [
                    "2019-02-19T10:55",
                    "2018-08-29T10:35",
                    "2018-08-29T10:35",
                    "2019-02-19T10:55",
                    "2018-08-29T10:35",
                    "2018-08-29T10:35"
                ],
                "RFXSTDTC": [
                    "2018-04-02T11:32",
                    "2018-05-08T11:20",
                    "2018-05-08T11:20",
                    "2018-04-02T11:32",
                    "2018-05-08T11:20",
                    "2018-05-08T11:20"
                ],
                "RFXENDTC": [
                    "2019-02-19T10:55",
                    "2018-08-29T10:35",
                    "2018-08-29T10:35",
                    "2019-02-19T10:55",
                    "2018-08-29T10:35",
                    "2018-08-29T10:35"
                ],
                "RFICDTC": [
                    "2018-03-06",
                    "2018-04-17",
                    "2018-04-17",
                    "2018-03-06",
                    "2018-04-17",
                    "2018-04-17"
                ],
                "RFPENDTC": [
                    "2021-02-18",
                    "2018-09-04",
                    "2018-09-04",
                    "2021-02-18",
                    "2018-09-04",
                    "2018-09-04"
                ],
                "DTHDTC": [
                    "2021-02-18",
                    "2018-09-04",
                    "2019-11-18",
                    "2021-02-18",
                    "2018-09-04",
                    "2019-11-18"
                ],
                "DTHFL": [
                    "",
                    "N",
                    "Y",
                    "",
                    "N",
                    "Y"
                ],
                "SITEID": [
                    "0760003",
                    "3000004",
                    "3000004",
                    "0760003",
                    "3000004",
                    "3000004"
                ],
                "BRTHDTC": [
                    "1940-01-14",
                    "1947-12-23",
                    "1947-12-23",
                    "1940-01-14",
                    "1947-12-23",
                    "1947-12-23"
                ],
                "AGE": [
                    78,
                    70,
                    71,
                    78,
                    70,
                    71
                ],
                "AGETXT": [
                    "",
                    "",
                    "",
                    "",
                    "",
                    ""
                ],
                "AGEU": [
                    "YEARS",
                    "YEARS",
                    "YEARS",
                    "YEARS",
                    "YEARS",
                    "YEARS"
                ],
                "SEX": [
                    "F",
                    "F",
                    "F",
                    "F",
                    "F",
                    "F"
                ],
                "RACE": [
                    "WHITE",
                    "WHITE",
                    "WHITE",
                    "WHITE",
                    "WHITE",
                    "WHITE"
                ],
                "ETHNIC": [
                    "HISPANIC OR LATINO",
                    "NOT HISPANIC OR LATINO",
                    "NOT HISPANIC OR LATINO",
                    "HISPANIC OR LATINO",
                    "NOT HISPANIC OR LATINO",
                    "NOT HISPANIC OR LATINO"
                ],
                "ARMCD": [
                    "SCRNFAIL",
                    "NOTASSGN",
                    "PLACEBO",
                    "PLACEBO",
                    "ZAN_LOW",
                    "ZAN_HIGH"
                ],
                "ARM": [
                    "Screen Failure",
                    "Not Assigned",
                    "NOT ASSIGNED",
                    "SCREEN FAILURE",
                    "Zanomaline Low Dose (54 mg)",
                    "Zanomaline High Dose (81 mg)"
                ],
                "ACTARMCD": [
                    "SCRNFAIL",
                    "NOTASSGN",
                    "NOTASSGN",
                    "SCRNFAIL",
                    "RANDOM",
                    "RANDOM"
                ],
                "ACTARM": [
                    "Screen Failure",
                    "Not Assigned",
                    "Placebo",
                    "Placebo",
                    "IKd",
                    "IKd"
                ],
                "ARMNRS": [
                    "",
                    "",
                    "",
                    "",
                    "",
                    ""
                ],
                "ACTARMUD": [
                    "",
                    "",
                    "",
                    "",
                    "",
                    ""
                ],
                "COUNTRY": [
                    "BRA",
                    "GRC",
                    "GRC",
                    "BRA",
                    "GRC",
                    "GRC"
                ]
            }
        }
    ],
    "standard": {
        "product": "sdtmig",
        "version": "3-2"
    },
    "codelists": []
}