{
  "rule": {
    "Authorities": [
      {
        "Organization": "CDISC",
        "Standards": [
          {
            "Name": "SDTMIG",
            "References": [
              {
                "Citations": [
                  {
                    "Document": "IG v3.4",
                    "Item": "Assumption 8",
                    "Section": "5.3",
                    "Cited_Guidance": "Since there are, by definition, no gaps between Elements, the value of SEENDTC for one Element will always be the same as the value of SESTDTC for the next Element. "
                  },
                  {
                    "Document": "IG v3.4",
                    "Item": "Assumption 9",
                    "Section": "5.3",
                    "Cited_Guidance": "\"Note that SESTDTC is required, although --STDTC is not required in any other subject-level dataset. The purpose of the dataset is to record the Elements a subject actually passed through. We assume that if it is known that a subject passed through a particular Element, then there must be some information on when it started, even if that information is imprecise. Thus, SESTDTC may not be null, although some records may not have all the components (e.g., year, month, day, hour, minute) of the date/time value collected.\""
                  }
                ],
                "Origin": "SDTM and SDTMIG Conformance Rules",
                "Version": "2.0",
                "Rule_Identifier": {
                  "Id": "CG0209",
                  "Version": "2"
                }
              }
            ],
            "Version": "3.4"
          },
          {
            "Name": "SDTMIG",
            "References": [
              {
                "Citations": [
                  {
                    "Document": "IG v3.2",
                    "Item": "Assumption 10|Assumption 11",
                    "Section": "5 SE",
                    "Cited_Guidance": "Assumption 10[Since there are, by definition, no gaps between Elements, the value of SEENDTC for one Element will always be the same as the value of SESTDTC for the next Element.]|Assumption 11[Note that SESTDTC is required, although --STDTC is not required in any other subject-level dataset. The purpose of the dataset is to record the Elements a subject actually passed through. We assume that if it is known that a subject passed through a particular Element, then there must be some information on when it started, even if that information is imprecise. Thus, SESTDTC may not be null, although some records may not have all the components (e.g., year, month, day, hour, minute) of the date/time value collected.]"
                  }
                ],
                "Origin": "SDTM and SDTMIG Conformance Rules",
                "Version": "2.0",
                "Rule_Identifier": {
                  "Id": "CG0209",
                  "Version": "2"
                }
              }
            ],
            "Version": "3.2"
          },
          {
            "Name": "SDTMIG",
            "References": [
              {
                "Citations": [
                  {
                    "Document": "IG v3.3",
                    "Item": "Assumption 8|Assumption 9",
                    "Section": "5.3",
                    "Cited_Guidance": "Assumption 8[Since there are, by definition, no gaps between Elements, the value of SEENDTC for one Element will always be the same as the value of SESTDTC for the next Element.]|Assumption 9[Note that SESTDTC is required, although --STDTC is not required in any other subject-level dataset. The purpose of the dataset is to record the Elements a subject actually passed through. We assume that if it is known that a subject passed through a particular Element, then there must be some information on when it started, even if that information is imprecise. Thus, SESTDTC may not be null, although some records may not have all the components (e.g., year, month, day, hour, minute) of the date/time value collected.]"
                  }
                ],
                "Origin": "SDTM and SDTMIG Conformance Rules",
                "Version": "2.0",
                "Rule_Identifier": {
                  "Id": "CG0209",
                  "Version": "2"
                }
              }
            ],
            "Version": "3.3"
          }
        ]
      }
    ],
    "Check": {
      "all": [
        {
          "name": "SEENDTC",
          "operator": "empty_within_except_last_row",
          "ordering": "SESTDTC",
          "value": "USUBJID"
        }
      ]
    },
    "Core": {
      "Id": "CDISC.SDTMIG.CG0209",
      "Status": "Draft",
      "Version": "1"
    },
    "Description": "Trigger error where element is not the last element and SEENDTC is null.",
    "Executability": "Fully Executable",
    "Outcome": {
      "Message": "SEENDTC is null when element is not the last."
    },
    "Scope": {
      "Classes": {
        "Include": [
          "SPECIAL PURPOSE"
        ]
      },
      "Domains": {
        "Include": [
          "SE"
        ]
      }
    },
    "Sensitivity": "Record",
    "Rule_Type": "Record Data"
  },
  "datasets": [
    {
      "filename": "se.xpt",
      "label": "Subject Elements",
      "domain": "SE",
      "variables": [
        {
          "name": "STUDYID",
          "label": "Study Identifier",
          "type": "Char",
          "length": 12
        },
        {
          "name": "DOMAIN",
          "label": "Domain Abbreviation",
          "type": "Char",
          "length": 2
        },
        {
          "name": "USUBJID",
          "label": "Unique Subject Identifier",
          "type": "Char",
          "length": 8
        },
        {
          "name": "SESEQ",
          "label": "Sequence Number",
          "type": "Num",
          "length": 8
        },
        {
          "name": "ETCD",
          "label": "Element Code",
          "type": "Char",
          "length": 7
        },
        {
          "name": "ELEMENT",
          "label": "Description of Element",
          "type": "Char",
          "length": 26
        },
        {
          "name": "EPOCH",
          "label": "Epoch",
          "type": "Char",
          "length": 9
        },
        {
          "name": "SESTDTC",
          "label": "Start Date/Time of Element",
          "type": "Char",
          "length": 10
        },
        {
          "name": "SEENDTC",
          "label": "End Date/Time of Element",
          "type": "Char",
          "length": 10
        },
        {
          "name": "SESTDY",
          "label": "Study Day of Start of Element",
          "type": "Num",
          "length": 8
        },
        {
          "name": "SEENDY",
          "label": "Study Day of End of Element",
          "type": "Num",
          "length": 8
        }
      ],
      "records": {
        "STUDYID": [
          "CDISCPILOT01",
          "CDISCPILOT01",
          "CDISCPILOT01",
          "CDISCPILOT01",
          "CDISCPILOT01",
          "CDISCPILOT01",
          "CDISCPILOT01",
          "CDISCPILOT01",
          "CDISCPILOT01",
          "CDISCPILOT01",
          "CDISCPILOT01",
          "CDISCPILOT01",
          "CDISCPILOT01"
        ],
        "DOMAIN": [
          "SE",
          "SE",
          "SE",
          "SE",
          "SE",
          "SE",
          "SE",
          "SE",
          "SE",
          "SE",
          "SE",
          "SE",
          "SE"
        ],
        "USUBJID": [
          "CDISC001",
          "CDISC001",
          "CDISC002",
          "CDISC002",
          "CDISC003",
          "CDISC003",
          "CDISC003",
          "CDISC004",
          "CDISC004",
          "CDISC005",
          "CDISC005",
          "CDISC005",
          "CDISC005"
        ],
        "SESEQ": [
          1,
          2,
          1,
          2,
          1,
          2,
          3,
          1,
          2,
          1,
          2,
          3,
          4
        ],
        "ETCD": [
          "SCREEN",
          "LOW",
          "SCREEN",
          "LOW",
          "SCREEN",
          "TITRATE",
          "HIGH",
          "SCREEN",
          "PLACEBO",
          "SCREEN",
          "TITRATE",
          "HIGH",
          "TITRATE"
        ],
        "ELEMENT": [
          "Screening",
          "Zanomaline 54 mg",
          "Screening",
          "Zanomaline 54 mg",
          "Screening",
          "Zanomaline 54 mg Titration",
          "Zanomaline 81 mg",
          "Screening",
          "Placebo",
          "Screening",
          "Zanomaline 54 mg Titration",
          "Zanomaline 81 mg",
          "Zanomaline 54 mg Titration"
        ],
        "EPOCH": [
          "SCREENING",
          "TREATMENT",
          "SCREENING",
          "TREATMENT",
          "SCREENING",
          "TREATMENT",
          "TREATMENT",
          "SCREENING",
          "TREATMENT",
          "SCREENING",
          "TREATMENT",
          "TREATMENT",
          "TREATMENT"
        ],
        "SESTDTC": [
          "2012-11-23",
          "2012-11-30",
          "2012-10-30",
          "2012-11-15",
          "2013-08-20",
          "2013-08-29",
          "2013-09-15",
          "2013-10-01",
          "2013-10-08",
          "2013-01-22",
          "2013-02-04",
          "2013-02-19",
          "2013-07-30"
        ],
        "SEENDTC": [
          "2012-11-30",
          "2013-05-20",
          "2012-11-15",
          "2013-01-14",
          "2013-08-29",
          "2013-09-15",
          "",
          "2013-10-08",
          "2014-03-18",
          "2013-02-04",
          "2013-02-19",
          "2013-07-30",
          "2013-08-06"
        ],
        "SESTDY": [
          -7,
          1,
          -16,
          1,
          -9,
          1,
          18,
          -7,
          1,
          -13,
          1,
          16,
          177
        ],
        "SEENDY": [
          1,
          172,
          1,
          61,
          1,
          18,
          null,
          1,
          162,
          1,
          16,
          177,
          184
        ]
      }
    }
  ],
  "standard": {
    "product": "sdtmig",
    "version": "3-4"
  },
  "codelists": []
}