STUDYID,DOMAIN,USUBJID,DSSEQ,DSTERM,DSDECOD,DSCAT,DSSCAT,EPOCH,DSSTDTC,DSBODSYS
CDISCCORE01,DS,015246-076-0003-00003,1,INFORMED CONSENT OBTAINED,INFORMED CONSENT OBTAINED,PROTOCOL MILESTONE,,,2018-03-06 00:00:00,
CDISCCORE01,DS,015246-076-0003-00003,2,COMPLETED,COMPLETED,DISPOSITION EVENT,,SCREENING,2018-03-30 00:00:00,
CDISCCORE01,DS,015246-076-0003-00003,3,RANDOMIZED,RANDOMIZED,PROTOCOL MILESTONE,,,2018-03-30T13:05,
CDISCCORE01,DS,015246-076-0003-00003,4,ADVERSE EVENT,ADVERSE EVENT,DISPOSITION EVENT,PREMATURE TREATMENT-DEX,TREATMENT,2018-09-03 00:00:00,
CDISCCORE01,DS,015246-076-0003-00003,5,PROGRESSIVE DISEASE,PROGRESSIVE DISEASE,DISPOSITION EVENT,DEFINITIVE TREATMENT-ALL STUDY TREATMENTS,TREATMENT,2019-02-19 00:00:00,
CDISCCORE01,DS,015246-076-0003-00003,6,DEATH,LAST CONTACT,DISPOSITION EVENT,,FOLLOW-UP,2020-02-18 00:00:00,
CDISCCORE01,DS,015246-076-0003-00003,7,PROGRESSIVE DISEASE,TEST,DISPOSITION EVENT,NOT TEST,FOLLOW-UP,2021-02-18 00:00:00,
CDISCCORE01,DS,015246-300-0004-00002,1,INFORMED CONSENT OBTAINED,INFORMED CONSENT OBTAINED,PROTOCOL MILESTONE,,,2018-04-17 00:00:00,PROTOCOL MILESTONE
CDISCCORE01,DS,015246-300-0004-00002,2,COMPLETED,COMPLETED,DISPOSITION EVENT,TEST2,SCREENING,2018-05-07 00:00:00,NOT TEST2
CDISCCORE01,DS,015246-300-0004-00002,3,RANDOMIZED,RANDOMIZED,PROTOCOL MILESTONE,,,2018-05-07T12:36,
CDISCCORE01,DS,015246-300-0004-00002,4,ADVERSE EVENT,ADVERSE EVENT,DISPOSITION EVENT,DEFINITIVE TREATMENT-ALL STUDY TREATMENTS,TREATMENT,2018-08-29 00:00:00,
CDISCCORE01,DS,015246-300-0004-00002,5,ADVERSE EVENT,LAST CONTACT,DISPOSITION EVENT,,TREATMENT,2018-09-04 00:00:00,
CDISCCORE01,DS,015246-300-0004-00002,6,DEATH,LAST CONTACT,DISPOSITION EVENT,,TREATMENT,2018-09-04 00:00:00,
