STUDYID,DOMAIN,USUBJID,SSSEQ,SSTESTCD,SSTEST,SSORRES,SSSTRESC,VISITNUM,EPOCH,SSDTC
CDISCCORE01,SS,015246-076-0003-00003,1,SURVSTAT,Survival Status,ALIVE,ALIVE,10,SCREENING,2019-02-18
CDISCCORE01,SS,015246-076-0003-00003,2,SURVSTAT,Survival Status,ALIVE,ALIVE,9900,FOLLOW-UP,2020-02-18
CDISCCORE01,SS,015246-300-0004-00002,1,SURVSTAT,Survival Status,ALIVE,ALIVE,10,SCREENING,2017-09-04
CDISCCORE01,SS,015246-300-0004-00002,2,SURVSTAT,Survival Status,ALIVE,ALIVE,9900,TREATMENT,2018-09-04
