{
    "rule": {
        "Authorities": [
            {
                "Organization": "CDISC",
                "Standards": [
                    {
                        "Name": "SDTMIG",
                        "References": [
                            {
                                "Citations": [
                                    {
                                        "Document": "Model v2.0",
                                        "Item": "AGEU",
                                        "Section": "Demographics",
                                        "Cited_Guidance": "Variable Qualifier of AGE or AGETXT."
                                    }
                                ],
                                "Origin": "SDTM and SDTMIG Conformance Rules",
                                "Version": "2.0",
                                "Rule_Identifier": {
                                    "Id": "CG0434",
                                    "Version": "1"
                                }
                            }
                        ],
                        "Version": "3.4"
                    },
                    {
                        "Name": "SDTMIG",
                        "References": [
                            {
                                "Citations": [
                                    {
                                        "Document": "Model v1.4",
                                        "Section": "2.2.6",
                                        "Cited_Guidance": "Units associated with AGE or AGETXT."
                                    }
                                ],
                                "Origin": "SDTM and SDTMIG Conformance Rules",
                                "Version": "2.0",
                                "Rule_Identifier": {
                                    "Id": "CG0434",
                                    "Version": "1"
                                }
                            }
                        ],
                        "Version": "3.2"
                    },
                    {
                        "Name": "SDTMIG",
                        "References": [
                            {
                                "Citations": [
                                    {
                                        "Document": "Model v1.7",
                                        "Section": "Table 2.2.6.1",
                                        "Cited_Guidance": "Units associated with AGE or AGETXT."
                                    }
                                ],
                                "Origin": "SDTM and SDTMIG Conformance Rules",
                                "Version": "2.0",
                                "Rule_Identifier": {
                                    "Id": "CG0434",
                                    "Version": "1"
                                }
                            }
                        ],
                        "Version": "3.3"
                    },
                    {
                        "Name": "TIG",
                        "References": [
                            {
                                "Citations": [
                                    {
                                        "Document": "SDTM v2.1",
                                        "Item": "AGEU",
                                        "Section": "3.2.1 Demographics",
                                        "Cited_Guidance": "Variable Qualifier of AGE or AGETXT."
                                    }
                                ],
                                "Origin": "TIG Conformance Rules",
                                "Version": "1.0",
                                "Rule_Identifier": {
                                    "Id": "TIG0586",
                                    "Version": "1"
                                }
                            }
                        ],
                        "Substandard": "SDTM",
                        "Version": "1.0"
                    }
                ]
            }
        ],
        "Check": {
            "any": [
                {
                    "all": [
                        {
                            "name": "AGEU",
                            "operator": "non_empty"
                        },
                        {
                            "name": "AGE",
                            "operator": "empty"
                        },
                        {
                            "name": "AGETXT",
                            "operator": "empty"
                        }
                    ]
                },
                {
                    "all": [
                        {
                            "name": "AGEU",
                            "operator": "non_empty"
                        },
                        {
                            "name": "AGE",
                            "operator": "empty"
                        },
                        {
                            "name": "AGETXT",
                            "operator": "not_exists"
                        }
                    ]
                }
            ]
        },
        "Core": {
            "Id": "CORE-000122",
            "Status": "Published",
            "Version": "1"
        },
        "Description": "Raise an error when AGEU is completed but both AGETXT and AGE are not completed.",
        "Executability": "Fully Executable",
        "Outcome": {
            "Message": "AGEU is completed, but both AGE and AGETXT are not completed.",
            "Output_Variables": [
                "AGE",
                "AGEU",
                "AGETXT"
            ]
        },
        "Scope": {
            "Classes": {
                "Include": [
                    "SPECIAL PURPOSE"
                ]
            },
            "Domains": {
                "Include": [
                    "DM"
                ]
            },
            "Use_Case": "INDH"
        },
        "Sensitivity": "Record",
        "Rule_Type": "Record Data"
    },
    "datasets": [
        {
            "filename": "dm.xpt",
            "label": "Demographics",
            "domain": "DM",
            "variables": [
                {
                    "name": "STUDYID",
                    "label": "Study Identifier",
                    "type": "Char",
                    "length": 12
                },
                {
                    "name": "DOMAIN",
                    "label": "Domain Abbreviation",
                    "type": "Char",
                    "length": 2
                },
                {
                    "name": "USUBJID",
                    "label": "Unique Subject Identifier",
                    "type": "Char",
                    "length": 20
                },
                {
                    "name": "SUBJID",
                    "label": "Subject Identifier for the Study",
                    "type": "Char",
                    "length": 12
                },
                {
                    "name": "RFSTDTC",
                    "label": "Subject Reference Start Date/Time",
                    "type": "Char",
                    "length": 10
                },
                {
                    "name": "RFENDTC",
                    "label": "Subject Reference End Date/Time",
                    "type": "Char",
                    "length": 10
                },
                {
                    "name": "RFXSTDTC",
                    "label": "Date/Time of First Study Treatment",
                    "type": "Char",
                    "length": 10
                },
                {
                    "name": "RFXENDTC",
                    "label": "Date/Time of Last Study Treatment",
                    "type": "Char",
                    "length": 10
                },
                {
                    "name": "RFICDTC",
                    "label": "Date/Time of Informed Consent",
                    "type": "Char",
                    "length": 10
                },
                {
                    "name": "RFPENDTC",
                    "label": "Date/Time of End of Participation",
                    "type": "Char",
                    "length": 10
                },
                {
                    "name": "DTHDTC",
                    "label": "Date/Time of Death",
                    "type": "Char",
                    "length": 10
                },
                {
                    "name": "DTHFL",
                    "label": "Subject Death Flag",
                    "type": "Char",
                    "length": 1
                },
                {
                    "name": "SITEID",
                    "label": "Study Site Identifier",
                    "type": "Char",
                    "length": 3
                },
                {
                    "name": "BRTHDTC",
                    "label": "Date/Time of Birth",
                    "type": "Char",
                    "length": 10
                },
                {
                    "name": "AGE",
                    "label": "Age",
                    "type": "Num",
                    "length": 8
                },
                {
                    "name": "AGEU",
                    "label": "Age Units",
                    "type": "Char",
                    "length": 5
                },
                {
                    "name": "SEX",
                    "label": "Sex",
                    "type": "Char",
                    "length": 1
                },
                {
                    "name": "RACE",
                    "label": "Race",
                    "type": "Char",
                    "length": 41
                },
                {
                    "name": "ETHNIC",
                    "label": "Ethnicity",
                    "type": "Char",
                    "length": 22
                },
                {
                    "name": "ARMCD",
                    "label": "Planned Arm Code",
                    "type": "Char",
                    "length": 8
                },
                {
                    "name": "ARM",
                    "label": "Description of Planned Arm",
                    "type": "Char",
                    "length": 28
                },
                {
                    "name": "ACTARMCD",
                    "label": "Actual Arm Code",
                    "type": "Char",
                    "length": 8
                },
                {
                    "name": "ACTARM",
                    "label": "Description of Actual Arm",
                    "type": "Char",
                    "length": 28
                },
                {
                    "name": "ARMNRS",
                    "label": "Reason Arm and/or Actual Arm is Null",
                    "type": "Char",
                    "length": 14
                },
                {
                    "name": "ACTARMUD",
                    "label": "Description of Unplanned Actual Arm",
                    "type": "Char",
                    "length": 200
                },
                {
                    "name": "COUNTRY",
                    "label": "Country",
                    "type": "Char",
                    "length": 3
                }
            ],
            "records": {
                "STUDYID": [
                    "CDISCCORE01",
                    "CDISCCORE01",
                    "CDISCCORE01",
                    "CDISCCORE01"
                ],
                "DOMAIN": [
                    "DM",
                    "DM",
                    "DM",
                    "DM"
                ],
                "USUBJID": [
                    "015246-099-0000-00000",
                    "015246-099-0000-00001",
                    "015246-099-0000-00002",
                    "015246-099-0000-00003"
                ],
                "SUBJID": [
                    "099000000000",
                    "099000000001",
                    "099000000002",
                    "099000000003"
                ],
                "RFSTDTC": [
                    "",
                    "",
                    "",
                    "2018-05-08T11:20"
                ],
                "RFENDTC": [
                    "",
                    "",
                    "",
                    "2018-08-29T10:35"
                ],
                "RFXSTDTC": [
                    "",
                    "",
                    "",
                    "2018-05-08T11:20"
                ],
                "RFXENDTC": [
                    "",
                    "",
                    "",
                    "2018-08-29T10:35"
                ],
                "RFICDTC": [
                    "2018-04-16",
                    "2018-05-20",
                    "2018-05-20",
                    "2018-04-17"
                ],
                "RFPENDTC": [
                    "2018-05-04",
                    "2018-06-10",
                    "2018-06-10",
                    "2018-09-04"
                ],
                "DTHDTC": [
                    "",
                    "",
                    "2018-06-10",
                    "2018-09-04"
                ],
                "DTHFL": [
                    "N",
                    "U",
                    "",
                    "N"
                ],
                "SITEID": [
                    "0990000",
                    "0990000",
                    "0990000",
                    "0990000"
                ],
                "BRTHDTC": [
                    "1940-08-14",
                    "1941-08-14",
                    "1942-08-14",
                    "1947-12-23"
                ],
                "AGE": [
                    20,
                    60,
                    null,
                    50
                ],
                "AGEU": [
                    "YEARS",
                    "YEARS",
                    "",
                    ""
                ],
                "SEX": [
                    "M",
                    "M",
                    "F",
                    "F"
                ],
                "RACE": [
                    "WHITE",
                    "WHITE",
                    "BLACK OR\r\nAFRICAN\r\nAMERICAN",
                    "WHITE"
                ],
                "ETHNIC": [
                    "NOT HISPANIC OR LATINO",
                    "NOT HISPANIC OR LATINO",
                    "NOT HISPANIC OR LATINO",
                    "NOT HISPANIC OR LATINO"
                ],
                "ARMCD": [
                    "",
                    "",
                    "",
                    "IKD"
                ],
                "ARM": [
                    "IKd",
                    "",
                    "",
                    "IKd"
                ],
                "ACTARMCD": [
                    "",
                    "",
                    "",
                    "PLACEBO"
                ],
                "ACTARM": [
                    "",
                    "IKD",
                    "",
                    "Placebo"
                ],
                "ARMNRS": [
                    "ASSIGNED, NOT TREATED",
                    "NOT ASSIGNED",
                    "SCREEN FAILURE",
                    "UNPLANNED TREATMENT"
                ],
                "ACTARMUD": [
                    "",
                    "",
                    "",
                    ""
                ],
                "COUNTRY": [
                    "USA",
                    "USA",
                    "USA",
                    "GRC"
                ]
            }
        }
    ],
    "standard": {
        "product": "sdtmig",
        "version": "3-3"
    },
    "codelists": []
}