dataset,variable,label,type,length
ae,STUDYID,Study Identifier,Char,50
ae,DOMAIN,Domain Abbreviation,Char,50
ae,USUBJID,Unique Subject Identifier,Char,50
ae,AESEQ,Sequence Number,Num,8
ae,AETERM,Reported Term for the Adverse Event,Char,50
ae,AEMODIFY,Modified Reported Term,Char,50
ae,AEDECOD,Dictionary-Derived Term,Char,50
ae,AEBODSYS,Body System or Organ Class,Char,50
ae,AESEV,Severity/Intensity,Char,50
ae,AESER,Serious Event,Char,50
ae,AEACN,Action Taken with Study Treatment,Char,50
ae,AEREL,Causality,Char,50
ae,AEOUT,Outcome of Adverse Event,Char,50
ae,AESCONG,Congenital Anomaly or Birth Defect,Char,50
ae,AESDISAB,Persist or Signif Disability/Incapacity,Char,50
ae,AESDTH,Results in Death,Char,50
ae,AESHOSP,Requires or Prolongs Hospitalization,Char,50
ae,AESLIFE,Is Life Threatening,Char,50
ae,EPOCH,Epoch,Char,50
ae,AESTDTC,Start Date/Time of Adverse Event,Char,50
ae,AEENDTC,End Date/Time of Adverse Event,Char,50
ae,AESTDY,Study Day of Start of Adverse Event,Num,8
ae,AEENDY,Study Day of End of Adverse Event,Num,8
ae,AEENRF,End Relative to Reference Period,Char,50
aprelsub,STUDYID,Study Identifier,Char,50
aprelsub,APID,Associated Persons Identifier,Char,50
aprelsub,RSUBJID,Related Subject or Pool Identifier,Char,50
aprelsub,RDEVID,Related Device Identifier,Char,50
aprelsub,SREL,"Subject, Device, or Study Relationship",Char,50
dm,STUDYID,Study Identifier,Char,50
dm,DOMAIN,Domain Abbreviation,Char,50
dm,USUBJID,Unique Subject Identifier,Char,50
dm,ARMCD,Planned Arm Code,Char,50
dm,ARM,Description of Planned Arm,Char,50
dm,ACTARMCD,Actual Arm Code,Char,50
dm,ACTARM,Description of Actual Arm,Char,50
dm,ARMNRS,Reason Arm and/or Actual Arm is Null,Char,50
dm,ACTARMUD,Description of Unplanned Actual Arm,Char,50
apmh,STUDYID,Study Identifier,Char,50
apmh,DOMAIN,Domain Abbreviation,Char,50
apmh,APID,Associated Persons Identifier,Char,50
apmh,MHSEQ,Sequence Number,Num,8
apmh,RSUBJID,Related Subject or Pool Identifier,Char,50
apmh,SREL,"Subject, Device, or Study Relationship",Char,50
apmh,MHTERM,Reported Term for the Medical History,Char,50
apmh,MHPRESP,Medical History Event Pre-Specified,Char,50
apmh,MHOCCUR,Medical History Occurrence,Char,50
