STUDYID,DOMAIN,USUBJID,IESEQ,IETESTCD,IETEST,IECAT,IEORRES,IESTRESC,EPOCH,IEDTC,IEDY
CDISCPILOT01,IE,CDISC015,1,INCL03,Males and postmenopausal females at least 50 years of age.,INCLUSION,N,N,SCREENING,2014-03-17,
