STUDYID,DOMAIN,USUBJID,SUBJID,RFSTDTC,RFENDTC,RFXSTDTC,RFXENDTC,RFICDTC,RFPENDTC,DTHDTC,DTHFL,SITEID,BRTHDTC,AGE,AGEU,SEX,RACE,ETHNIC,ARMCD,ARM,ACTARMCD,ACTARM,ARMNRS,ACTARMUD,COUNTRY
CDISCPILOT01,DM,CDISC001,100001,2018-02-20T09:40,2019-02-20T10:38,2018-02-20T09:40,2019-02-20T10:38,2018-01-24,2022-01-19,,,360001,1954-08-06,63,YEARS,M,WHITE,NOT HISPANIC OR LATINO,IKD,Drug Ikd,IKD,Drug Ikd,,,AUS
CDISCPILOT01,DM,CDISC002,100002,2018-04-17T09:25,2019-03-13,2018-04-17T09:25,2019-03-13,2018-03-22,2019-09-29,2019-09-29,Y,360001,1941-07-03,76,YEARS,F,WHITE,NOT HISPANIC OR LATINO,IKD,Drug Ikd,IKD,Drug Ikd,,,AUS
CDISCPILOT01,DM,CDISC003,100003,2018-04-18T09:30,2018-07-18T11:15,2018-04-18T09:30,2018-07-18T11:15,2018-03-22,2006-03-19,,,360001,1964-10-28,53,YEARS,M,WHITE,NOT HISPANIC OR LATINO,IKD,Drug Ikd,IKD,Drug Ikd,,,AUS
CDISCPILOT01,DM,CDISC004,200004,,,,,2018-04-16,2018-05-04,,,360002,1940-08-14,77,YEARS,M,WHITE,NOT HISPANIC OR LATINO,,,,,Screen Failure,,AUS
CDISCPILOT01,DM,CDISC006,600006,2018-02-20T09:40,2019-02-20T10:38,2018-02-20T09:40,2019-02-20T10:38,2018-02-20T8:00,2022-01-19,,,500005,1954-08-06,63,YEARS,F,WHITE,NOT HISPANIC OR LATINO,IKD,Drug Ikd,IKD,Drug Ikd,,,USA
CDISCPILOT01,DM,CDISC007,700007,2018-02-20T09:40,2019-02-20T10:38,2018-02-20,2019-02-20T10:38,2018-02-20,2022-01-19,,,700007,1954-08-06,63,YEARS,F,WHITE,NOT HISPANIC OR LATINO,IKD,Drug Ikd,IKD,Drug Ikd,,,USA
