Authorities:
  - Organization: CDISC
    Standards:
      - Name: ADaMIG-MD
        References:
          - Citations:
              - Cited Guidance: The MDBDS supports analysis needs by adding SPDEVID as a
                  required key variable and USUBJID as a conditionally required
                  variable. See the BDS class for further details."
                Document: ADaMIG-MD v1.0
                Item: ""
                Section: "3.1"
            Criteria:
              Logical Expression:
                Condition: BNRIND is present and ABLFL is not present
                Rule: BNRIND is present and ABLFL is present
              Plain Language Expression: When BNRIND is present, ABLFL must also be present
              Type: Failure
            Origin: ADaM Conformance Rules
            Release Notes: ""
            Rule Identifier:
              Id: "167"
              Version: "2"
            Validator Rule Message: BNRIND is present but ABLFL is not present
            Version: "5.0"
        Version: "1.0"
      - Name: ADaMIG
        References:
          - Citations:
              - Cited Guidance: ABLFL of the baseline record identified by ABLFL
                Document: ADaMIG
                Item: Table 3.2.5.4
                Section: 3.2.5
            Criteria:
              Logical Expression:
                Condition: BNRIND is present and ABLFL is not present
                Rule: BNRIND is present and ABLFL is present
              Plain Language Expression: When BNRIND is present, ABLFL must also be present
              Type: Failure
            Origin: ADaM Conformance Rules
            Release Notes: ""
            Rule Identifier:
              Id: "167"
              Version: "1"
            Validator Rule Message: BNRIND is present but ABLFL is not present
            Version: "5.0"
        Version: "1.0"

      - Name: ADaMIG
        References:
          - Citations:
              - Cited Guidance: ANRIND of the baseline record identified by ABLFL
                Document: ADaMIG
                Item: Table 3.3.7.1.
                Section: 3.3.7
            Criteria:
              Logical Expression:
                Condition: BNRIND is present and ABLFL is not present
                Rule: BNRIND is present and ABLFL is present
              Plain Language Expression: When BNRIND is present, ABLFL must also be present
              Type: Failure
            Origin: ADaM Conformance Rules
            Release Notes: ""
            Rule Identifier:
              Id: "167"
              Version: "1"
            Validator Rule Message: BNRIND is present but ABLFL is not present
            Version: "5.0"
        Version: "1.1"

      - Name: ADaMIG
        References:
          - Citations:
              - Cited Guidance: ANRIND  of the baseline record identified by ABLFL
                Document: ADaMIG
                Item: Table 3.3.7.1.
                Section: 3.3.7
            Criteria:
              Logical Expression:
                Condition: BNRIND is present and ABLFL is not present
                Rule: BNRIND is present and ABLFL is present
              Plain Language Expression: When BNRIND is present, ABLFL must also be present
              Type: Failure
            Origin: ADaM Conformance Rules
            Release Notes: ""
            Rule Identifier:
              Id: "167"
              Version: "1"
            Validator Rule Message: BNRIND is present but ABLFL is not present
            Version: "5.0"
        Version: "1.2"

      - Name: ADaMIG
        References:
          - Citations:
              - Cited Guidance: ANRIND  of the baseline record identified by ABLFL
                Document: ADaMIG
                Item: Table 3.3.7.1.
                Section: 3.3.7
            Criteria:
              Logical Expression:
                Condition: BNRIND is present and ABLFL is not present
                Rule: BNRIND is present and ABLFL is present
              Plain Language Expression: When BNRIND is present, ABLFL must also be present
              Type: Failure
            Origin: ADaM Conformance Rules
            Release Notes: ""
            Rule Identifier:
              Id: "167"
              Version: "2"
            Validator Rule Message: BNRIND is present but ABLFL is not present
            Version: "5.0"
        Version: "1.3"

Check:
  all:
    - name: BNRIND
      operator: exists
    - name: ABLFL
      operator: not_exists

Core:
  Id: CDISC.ADaMIG.AD0167
  Status: Draft
  Version: "1"
Description: ""
Executability: Fully Executable
Outcome:
  Message: BNRIND is present but ABLFL is not present
  Output Variables:
    - SUBJID
    - ABLFL
    - BNRIND
    - ANRIND
Rule Type: Record Data
Scope:
  Data Structures:
    Include:
      - BASIC DATA STRUCTURE
Sensitivity: Record
