STUDYID,DOMAIN,USUBJID,CMSEQ,CMGRPID,CMSPID,CMTRT,CMMODIFY,CMDECOD,CMCAT,CMSCAT,CMPRESP,CMOCCUR,CMSTAT,CMREASND,CMINDC,CMCLAS,CMCLASCD,CMDOSE,CMDOSTXT,CMDOSU,CMDOSFRM,CMDOSFRQ,CMDOSTOT,CMDOSRGM,CMROUTE,CMADJ,CMRSDISC,TAETORD,EPOCH,CMSTDTC,CMENDTC,CMSTDY,CMENDY,CMDUR,CMSTRF,CMENRF,CMSTRTPT,CMSTTPT,CMENRTPT,CMENTPT
CDISCPILOT01,CM,CDISC001,1,,,ASPIRIN,,,,,,,,,,NSAID,C3853540,,,,,,,,,,,,,,,,,,,,,,,
CDISCPILOT01,CM,CDISC002,1,,,ASPIRIN,,,,,,,,,,NSAID,C3853540,,,,,,,,,,,,,,,,,,,,,,,
