STUDYID,DOMAIN,USUBJID,SUSEQ,SUGRPID,SUSPID,SUTRT,SUMODIFY,SUDECOD,SUCAT,SUSCAT,SUPRESP,SUOCCUR,SUSTAT,SUREASND,SUCLAS,SUCLASCD,SUDOSE,SUDOSTXT,SUDOSU,SUDOSFRM,SUDOSFRQ,SUDOSTOT,SUROUTE,TAETORD,EPOCH,SUSTDTC,SUENDTC,SUSTDY,SUENDY,SUDUR,SUSTRF,SUENRF,SUSTRTPT,SUSTTPT,SUENRTPT,SUENTPT,OEEVALID,OEACPTFL,OEREPNUM,VISITNUM,VISIT,VISITDY,TAETORD2,EPOCH3,OEDTC,OEDY,OETPT,OETPTNUM,OEELTM,OETPTREF,OERFTDTC
CDISCPILOT01,SU,CDISC001,1,1,1,CIGARETTES,,,,,,,,,CIGARETTE,C42678,2,,,,,,,,,,,,,,,,,,,,,,,,,,,,,,,,,,
CDISCPILOT01,SU,CDISC002,1,1,1,CAFFEINE,,,,,,,,,CAFFEINE,C75346,3,,,,,,,,,,,,,,,,,,,,,,,,,,,,,,,,,,
CDISCPILOT01,SU,CDISC003,1,1,1,CIGARETTES,,,,,,,,,CIGARETTE,C42678,4,,,,,,,,,,,,,,,,,,,,,,,,,,,,,,,,,,
CDISCPILOT01,SU,CDISC001,1,1,1,CIGARETTES,,,,,,,,,CIGARETTE,C42678,,,,,,,,,,,,,,,,,,,,,,,,,,,,,,,,,,,
CDISCPILOT01,SU,CDISC002,1,1,1,CAFFEINE,,,,,,,,,CAFFEINE,C75346,,,,,,,,,,,,,,,,,,,,,,,,,,,,,,,,,,,
CDISCPILOT01,SU,CDISC003,1,1,1,CIGARETTES,,,,,,,,,CIGARETTE,C42678,,,,,,,,,,,,,,,,,,,,,,,,,,,,,,,,,,,
