STUDYID,DOMAIN,USUBJID,CMSEQ,CMTRT,CMDOSE,CMDOSU,CMDOSFRQ,CMSTDTC,CMENDTC
ABC,CM,ABC-0001,1,ASPIRIN,100,mg,ONCE,2004-01-01 00:00:00,2004-01-01 00:00:00
ABC,CM,ABC-0001,2,ASPIRIN,100,mg,ONCE,2004-01-02 00:00:00,2004-01-02 00:00:00
ABC,CM,ABC-0001,3,ASPIRIN,100,mg,ONCE,2004-01-03 00:00:00,2004-01-03 00:00:00
ABC,CM,ABC-0001,4,ASPIRIN,100,mg,ONCE,2004-01-07 00:00:00,2004-01-07 00:00:00
ABC,CM,ABC-0001,5,ASPIRIN,100,mg,ONCE,2004-01-07 00:00:00,2004-01-07 00:00:00
ABC,CM,ABC-0001,6,ASPIRIN,100,mg,ONCE,2004-01-09 00:00:00,2004-01-09 00:00:00
ABC,CM,ABC-0002,1,ASPIRIN,100,mg,QD,2004-01-01 00:00:00,2004-01-03 00:00:00
ABC,CM,ABC-0002,2,ASPIRIN,100,mg,BID,2004-01-07 00:00:00,2004-01-07 00:00:00
ABC,CM,ABC-0002,3,ASPIRIN,100,mg,QD,2004-01-09 00:00:00,2004-01-09 00:00:00
ABC,CM,ABC-0003,1,ASPIRIN,100,mg,PRN,2004-01-01 00:00:00,2004-01-09 00:00:00
