STUDYID,USUBJID,SUBJID,SITEID,AESEQ,AETERM,AEDECOD,AEBODSYS,AEBDSYCD,AELLT,AELLTCD,AEPTCD,AEHLT,AEHLTCD,AEHLGT,AEHLGTCD,AESOC,AESOCCD,TRTEMFL,AESER
CDISCPILOT01,CDISC001,SUBJ1,SITE1,4,HEADACHE,Headache,Nervous system disorders,10029205,Headache,10019211,10019211,Headaches NEC,10019233,Headaches,10019231,Nervous system disorders,10029205,Y,N
CDISCPILOT01,CDISC002,SUBJ2,SITE1,1,TIREDNESS,Fatigue,General disorders and administration site conditions,10018065,Fatigue,10016256,10016256,Asthenic conditions,10003550,General system disorders NEC,10018073,General disorders and administration site conditions,10018065,Y,Y
