dataset,variable,label,type,length
vs.xpt,STUDYID,Study Identifier,Char,12
vs.xpt,DOMAIN,Domain Abbreviation,Char,2
vs.xpt,USUBJID,Unique Subject Identifier,Char,8
vs.xpt,POOLID,Pool Identfier,Char,8
vs.xpt,VSSEQ,Sequence Number,Num,8
vs.xpt,VSTESTCD,Vital Signs Test Short Name,Char,6
vs.xpt,VSTEST,Vital Signs Test Name,Char,24
vs.xpt,VSPOS,Vital Signs Position of Subject,Char,8
vs.xpt,VSORRES,Result or Finding in Original Units,Char,8
vs.xpt,VSORRESU,Original Units,Char,9
vs.xpt,VSSTRESC,Character Result/Finding in Std Format,Char,200
vs.xpt,VSSTRESN,Numeric Result/Finding in Standard Units,Num,8
vs.xpt,VSSTRESU,Standard Units,Char,9
vs.xpt,VSSTAT,Completion Status,Char,8
vs.xpt,VSREASND,Reason Not Done,Char,8
vs.xpt,VSLOC,Location of Vital Signs Measurement,Char,11
vs.xpt,VSEXCLFL,Excusion Flag,Char,1
vs.xpt,VSREASEX,,,
vs.xpt,VSLOBXFL,Last Observation Before Exposure Flag,Char,1
vs.xpt,VSREPNUM,Repetition Number,Num,8
vs.xpt,VISITNUM,Visit Number,Num,8
vs.xpt,VISIT,Visit Name,Char,200
vs.xpt,EPOCH,Epoch,Char,9
vs.xpt,VSDTC,Date/Time of Measurements,Char,10
vs.xpt,VSDY,Study Day of Vital Signs,Num,8
vs.xpt,VSTPT,Planned Time Point Name,Char,200
vs.xpt,VSTPTNUM,Planned Time Point Number,Num,8
sc.xpt,STUDYID,Study Identifier,Char,12
sc.xpt,DOMAIN,Domain Abbreviation,Char,2
sc.xpt,USUBJID,Unique Subject Identifier,Char,8
sc.xpt,POOLID,Pool Identfier,Char,8
sc.xpt,VSSEQ,Sequence Number,Num,8
sc.xpt,SCSTAT,,,
