{3 items
"rule":{10 items
"Authorities":[1 item
0:{2 items
"Organization":"CDISC"
"Standards":[4 items
0:{3 items
"Name":"SDTMIG"
"References":[1 item
0:{4 items
"Citations":[1 item
0:{3 items
"Document":"IG v3.4"
"Section":"5.5"
"Cited_Guidance":"The Subject Visits domain consolidates information about the timing of subject visits that is otherwise spread over domains that include the visit variables (VISITNUM and possibly VISIT and/or VISITDY)."
}
]
"Origin":"SDTM and SDTMIG Conformance Rules"
"Version":"2.0"
"Rule_Identifier":{2 items
"Id":"CG0034"
"Version":"2"
}
}
]
"Version":"3.4"
}
1:{3 items
"Name":"SDTMIG"
"References":[1 item
0:{4 items
"Citations":[1 item
0:{3 items
"Document":"IG v3.3"
"Section":"5.5"
"Cited_Guidance":"The Subject Visits domain consolidates information about the timing of subject visits that is otherwise spread over domains that include the visit variables (VISITNUM and possibly VISIT and/or VISITDY)."
}
]
"Origin":"SDTM and SDTMIG Conformance Rules"
"Version":"2.0"
"Rule_Identifier":{2 items
"Id":"CG0034"
"Version":"2"
}
}
]
"Version":"3.3"
}
2:{3 items
"Name":"SDTMIG"
"References":[1 item
0:{4 items
"Citations":[1 item
0:{3 items
"Document":"IG v3.2"
"Section":"5"
"Cited_Guidance":"The Subject Visits domain consolidates information about the timing of subject visits that is otherwise spread over domains that include the visit variables (VISITNUM and possibly VISIT and/or VISITDY)."
}
]
"Origin":"SDTM and SDTMIG Conformance Rules"
"Version":"2.0"
"Rule_Identifier":{2 items
"Id":"CG0034"
"Version":"2"
}
}
]
"Version":"3.2"
}
3:{4 items
"Name":"TIG"
"References":[1 item
0:{4 items
"Citations":[1 item
0:{4 items
"Document":"TIG 1.0"
"Item":"Assumption 1"
"Section":"2.8.10.25"
"Cited_Guidance":"The Subject Visits domain consolidates information about the timing of subject visits that is otherwise spread over domains that include the visit variables (VISITNUM and possibly VISIT and/or VISITDY)."
}
]
"Origin":"TIG Conformance Rules"
"Version":"1.0"
"Rule_Identifier":{2 items
"Id":"TIG0315"
"Version":"1"
}
}
]
"Substandard":"SDTM"
"Version":"1.0"
}
]
}
]
"Check":{...}1 item
"Core":{3 items
"Id":"CORE-000168"
"Status":"Published"
"Version":"1"
}
"Description":"If VISITNUM is not null then VISITNUM should be among SV.VISITNUM"
"Executability":"Fully Executable"
"Operations":[1 item
0:{5 items
"domain":"SV"
"group":[1 item
0:"USUBJID"
]
"id":"$sv_visitnum"
"name":"VISITNUM"
"operator":"distinct"
}
]
"Outcome":{2 items
"Message":"VISITNUM is not among VISITNUM in SV domain."
"Output_Variables":[1 item
0:"VISITNUM"
]
}
"Scope":{3 items
"Classes":{1 item
"Include":[1 item
0:"ALL"
]
}
"Domains":{1 item
"Exclude":[1 item
0:"SV"
]
}
"Use_Case":"INDH"
}
"Sensitivity":"Record"
"Rule_Type":"Record Data"
}
"datasets":[5 items
0:{5 items
"filename":"lb.xpt"
"label":"Laboratory Test Results"
"domain":"LB"
"variables":[23 items
0:{4 items
"name":"STUDYID"
"label":"Study Identifier"
"type":"Char"
"length":12
}
1:{4 items
"name":"DOMAIN"
"label":"Domain Abbreviation"
"type":"Char"
"length":2
}
2:{4 items
"name":"USUBJID"
"label":"Unique Subject Identifier"
"type":"Char"
"length":8
}
3:{4 items
"name":"LBSEQ"
"label":"Sequence Number"
"type":"Num"
"length":8
}
4:{4 items
"name":"LBTESTCD"
"label":"Lab Test or Examination Short Name"
"type":"Char"
"length":7
}
5:{4 items
"name":"LBTEST"
"label":"Lab Test or Examination Name"
"type":"Char"
"length":39
}
6:{4 items
"name":"LBCAT"
"label":"Category for Lab Test"
"type":"Char"
"length":10
}
7:{4 items
"name":"LBORRES"
"label":"Result or Finding in Original Units"
"type":"Char"
"length":6
}
8:{4 items
"name":"LBORRESU"
"label":"Original Units"
"type":"Char"
"length":7
}
9:{4 items
"name":"LBORNRLO"
"label":"Reference Range Lower Limit in Orig Unit"
"type":"Char"
"length":200
}
10:{4 items
"name":"LBORNRHI"
"label":"Reference Range Upper Limit in Orig Unit"
"type":"Char"
"length":200
}
11:{4 items
"name":"LBSTRESC"
"label":"Character Result/Finding in Std Format"
"type":"Char"
"length":8
}
12:{4 items
"name":"LBSTRESN"
"label":"Numeric Result/Finding in Standard Units"
"type":"Num"
"length":8
}
13:{4 items
"name":"LBSTRESU"
"label":"Standard Units"
"type":"Char"
"length":7
}
14:{4 items
"name":"LBSTNRLO"
"label":"Reference Range Lower Limit-Std Units"
"type":"Num"
"length":8
}
15:{4 items
"name":"LBSTNRHI"
"label":"Reference Range Upper Limit-Std Units"
"type":"Num"
"length":8
}
16:{4 items
"name":"LBNRIND"
"label":"Reference Range Indicator"
"type":"Char"
"length":8
}
17:{4 items
"name":"LBLOBXFL"
"label":"Last Observation Before Exposure Flag"
"type":"Char"
"length":1
}
18:{4 items
"name":"VISITNUM"
"label":"Visit Number"
"type":"Num"
"length":8
}
19:{4 items
"name":"VISIT"
"label":"Visit Name"
"type":"Char"
"length":200
}
20:{4 items
"name":"EPOCH"
"label":"Epoch"
"type":"Char"
"length":9
}
21:{4 items
"name":"LBDTC"
"label":"Date/Time of Specimen Collection"
"type":"Char"
"length":19
}
22:{4 items
"name":"LBDY"
"label":"Study Day of Specimen Collection"
"type":"Num"
"length":8
}
]
"records":{23 items
"STUDYID":888 items
[0 - 100]
[100 - 200]
[200 - 300]
[300 - 400]
[400 - 500]
[500 - 600]
[600 - 700]
[700 - 800]
[800 - 888]
"DOMAIN":888 items
[0 - 100]
[100 - 200]
[200 - 300]
[300 - 400]
[400 - 500]
[500 - 600]
[600 - 700]
[700 - 800]
[800 - 888]
"USUBJID":888 items
[0 - 100]
[100 - 200]
[200 - 300]
[300 - 400]
[400 - 500]
[500 - 600]
[600 - 700]
[700 - 800]
[800 - 888]
"LBSEQ":888 items
[0 - 100]
[100 - 200]
[200 - 300]
[300 - 400]
[400 - 500]
[500 - 600]
[600 - 700]
[700 - 800]
[800 - 888]
"LBTESTCD":888 items
[0 - 100]
[100 - 200]
[200 - 300]
[300 - 400]
[400 - 500]
[500 - 600]
[600 - 700]
[700 - 800]
[800 - 888]
"LBTEST":888 items
[0 - 100]
[100 - 200]
[200 - 300]
[300 - 400]
[400 - 500]
[500 - 600]
[600 - 700]
[700 - 800]
[800 - 888]
"LBCAT":888 items
[0 - 100]
[100 - 200]
[200 - 300]
[300 - 400]
[400 - 500]
[500 - 600]
[600 - 700]
[700 - 800]
[800 - 888]
"LBORRES":888 items
[0 - 100]
[100 - 200]
[200 - 300]
[300 - 400]
[400 - 500]
[500 - 600]
[600 - 700]
[700 - 800]
[800 - 888]
"LBORRESU":888 items
[0 - 100]
[100 - 200]
[200 - 300]
[300 - 400]
[400 - 500]
[500 - 600]
[600 - 700]
[700 - 800]
[800 - 888]
"LBORNRLO":888 items
[0 - 100]
[100 - 200]
[200 - 300]
[300 - 400]
[400 - 500]
[500 - 600]
[600 - 700]
[700 - 800]
[800 - 888]
"LBORNRHI":888 items
[0 - 100]
[100 - 200]
[200 - 300]
[300 - 400]
[400 - 500]
[500 - 600]
[600 - 700]
[700 - 800]
[800 - 888]
"LBSTRESC":888 items
[0 - 100]
[100 - 200]
[200 - 300]
[300 - 400]
[400 - 500]
[500 - 600]
[600 - 700]
[700 - 800]
[800 - 888]
"LBSTRESN":888 items
[0 - 100]
[100 - 200]
[200 - 300]
[300 - 400]
[400 - 500]
[500 - 600]
[600 - 700]
[700 - 800]
[800 - 888]
"LBSTRESU":888 items
[0 - 100]
[100 - 200]
[200 - 300]
[300 - 400]
[400 - 500]
[500 - 600]
[600 - 700]
[700 - 800]
[800 - 888]
"LBSTNRLO":888 items
[0 - 100]
[100 - 200]
[200 - 300]
[300 - 400]
[400 - 500]
[500 - 600]
[600 - 700]
[700 - 800]
[800 - 888]
"LBSTNRHI":888 items
[0 - 100]
[100 - 200]
[200 - 300]
[300 - 400]
[400 - 500]
[500 - 600]
[600 - 700]
[700 - 800]
[800 - 888]
"LBNRIND":888 items
[0 - 100]
[100 - 200]
[200 - 300]
[300 - 400]
[400 - 500]
[500 - 600]
[600 - 700]
[700 - 800]
[800 - 888]
"LBLOBXFL":888 items
[0 - 100]
[100 - 200]
[200 - 300]
[300 - 400]
[400 - 500]
[500 - 600]
[600 - 700]
[700 - 800]
[800 - 888]
"VISITNUM":888 items
[0 - 100]
[100 - 200]
[200 - 300]
[300 - 400]
[400 - 500]
[500 - 600]
[600 - 700]
[700 - 800]
[800 - 888]
"VISIT":888 items
[0 - 100]
[100 - 200]
[200 - 300]
[300 - 400]
[400 - 500]
[500 - 600]
[600 - 700]
[700 - 800]
[800 - 888]
"EPOCH":888 items
[0 - 100]
[100 - 200]
[200 - 300]
[300 - 400]
[400 - 500]
[500 - 600]
[600 - 700]
[700 - 800]
[800 - 888]
"LBDTC":888 items
[0 - 100]
[100 - 200]
[200 - 300]
[300 - 400]
[400 - 500]
[500 - 600]
[600 - 700]
[700 - 800]
[800 - 888]
"LBDY":888 items
[0 - 100]
[100 - 200]
[200 - 300]
[300 - 400]
[400 - 500]
[500 - 600]
[600 - 700]
[700 - 800]
[800 - 888]
}
}
1:{5 items
"filename":"oe.xpt"
"label":"Ophthalmic Examinations"
"domain":"OE"
"variables":[18 items
0:{4 items
"name":"STUDYID"
"label":"Study Identifier"
"type":"Char"
"length":12
}
1:{4 items
"name":"DOMAIN"
"label":"Domain Abbreviation"
"type":"Char"
"length":2
}
2:{4 items
"name":"USUBJID"
"label":"Unique Subject Identifier"
"type":"Char"
"length":8
}
3:{4 items
"name":"FOCID"
"label":"Focus of Study-Specific Interest"
"type":"Char"
"length":2
}
4:{4 items
"name":"OESEQ"
"label":"Sequence Number"
"type":"Num"
"length":8
}
5:{4 items
"name":"OETESTCD"
"label":"Short Name of Ophthalmic Test or Exam"
"type":"Char"
"length":8
}
6:{4 items
"name":"OETEST"
"label":"Name of Ophthalmic Test or Exam"
"type":"Char"
"length":18
}
7:{4 items
"name":"OEORRES"
"label":"Result or Finding in Original Units"
"type":"Char"
"length":200
}
8:{4 items
"name":"OESTRESC"
"label":"Character Result/Finding in Std Format"
"type":"Char"
"length":200
}
9:{4 items
"name":"OELOC"
"label":"Location Used for the Measurement"
"type":"Char"
"length":21
}
10:{4 items
"name":"OELAT"
"label":"Laterality"
"type":"Char"
"length":5
}
11:{4 items
"name":"OEMETHOD"
"label":"Method of Test or Examination"
"type":"Char"
"length":9
}
12:{4 items
"name":"OELOBXFL"
"label":"Last Observation Before Exposure Flag"
"type":"Char"
"length":1
}
13:{4 items
"name":"VISITNUM"
"label":"Visit Number"
"type":"Num"
"length":8
}
14:{4 items
"name":"VISIT"
"label":"Visit Name"
"type":"Char"
"length":200
}
15:{4 items
"name":"EPOCH"
"label":"Epoch"
"type":"Char"
"length":9
}
16:{4 items
"name":"OEDTC"
"label":"Date/Time of Collection"
"type":"Char"
"length":200
}
17:{4 items
"name":"OEDY"
"label":"Study Day of Visit/Collection/Exam"
"type":"Num"
"length":8
}
]
"records":{18 items
"STUDYID":[70 items
0:"CDISCPILOT01"
1:"CDISCPILOT01"
2:"CDISCPILOT01"
3:"CDISCPILOT01"
4:"CDISCPILOT01"
5:"CDISCPILOT01"
6:"CDISCPILOT01"
7:"CDISCPILOT01"
8:"CDISCPILOT01"
9:"CDISCPILOT01"
10:"CDISCPILOT01"
11:"CDISCPILOT01"
12:"CDISCPILOT01"
13:"CDISCPILOT01"
14:"CDISCPILOT01"
15:"CDISCPILOT01"
16:"CDISCPILOT01"
17:"CDISCPILOT01"
18:"CDISCPILOT01"
19:"CDISCPILOT01"
20:"CDISCPILOT01"
21:"CDISCPILOT01"
22:"CDISCPILOT01"
23:"CDISCPILOT01"
24:"CDISCPILOT01"
25:"CDISCPILOT01"
26:"CDISCPILOT01"
27:"CDISCPILOT01"
28:"CDISCPILOT01"
29:"CDISCPILOT01"
30:"CDISCPILOT01"
31:"CDISCPILOT01"
32:"CDISCPILOT01"
33:"CDISCPILOT01"
34:"CDISCPILOT01"
35:"CDISCPILOT01"
36:"CDISCPILOT01"
37:"CDISCPILOT01"
38:"CDISCPILOT01"
39:"CDISCPILOT01"
40:"CDISCPILOT01"
41:"CDISCPILOT01"
42:"CDISCPILOT01"
43:"CDISCPILOT01"
44:"CDISCPILOT01"
45:"CDISCPILOT01"
46:"CDISCPILOT01"
47:"CDISCPILOT01"
48:"CDISCPILOT01"
49:"CDISCPILOT01"
50:"CDISCPILOT01"
51:"CDISCPILOT01"
52:"CDISCPILOT01"
53:"CDISCPILOT01"
54:"CDISCPILOT01"
55:"CDISCPILOT01"
56:"CDISCPILOT01"
57:"CDISCPILOT01"
58:"CDISCPILOT01"
59:"CDISCPILOT01"
60:"CDISCPILOT01"
61:"CDISCPILOT01"
62:"CDISCPILOT01"
63:"CDISCPILOT01"
64:"CDISCPILOT01"
65:"CDISCPILOT01"
66:"CDISCPILOT01"
67:"CDISCPILOT01"
68:"CDISCPILOT01"
69:"CDISCPILOT01"
]
"DOMAIN":[70 items
0:"OE"
1:"OE"
2:"OE"
3:"OE"
4:"OE"
5:"OE"
6:"OE"
7:"OE"
8:"OE"
9:"OE"
10:"OE"
11:"OE"
12:"OE"
13:"OE"
14:"OE"
15:"OE"
16:"OE"
17:"OE"
18:"OE"
19:"OE"
20:"OE"
21:"OE"
22:"OE"
23:"OE"
24:"OE"
25:"OE"
26:"OE"
27:"OE"
28:"OE"
29:"OE"
30:"OE"
31:"OE"
32:"OE"
33:"OE"
34:"OE"
35:"OE"
36:"OE"
37:"OE"
38:"OE"
39:"OE"
40:"OE"
41:"OE"
42:"OE"
43:"OE"
44:"OE"
45:"OE"
46:"OE"
47:"OE"
48:"OE"
49:"OE"
50:"OE"
51:"OE"
52:"OE"
53:"OE"
54:"OE"
55:"OE"
56:"OE"
57:"OE"
58:"OE"
59:"OE"
60:"OE"
61:"OE"
62:"OE"
63:"OE"
64:"OE"
65:"OE"
66:"OE"
67:"OE"
68:"OE"
69:"OE"
]
"USUBJID":[70 items
0:"CDISC004"
1:"CDISC004"
2:"CDISC004"
3:"CDISC004"
4:"CDISC004"
5:"CDISC004"
6:"CDISC004"
7:"CDISC004"
8:"CDISC004"
9:"CDISC004"
10:"CDISC004"
11:"CDISC004"
12:"CDISC004"
13:"CDISC004"
14:"CDISC004"
15:"CDISC004"
16:"CDISC004"
17:"CDISC004"
18:"CDISC004"
19:"CDISC004"
20:"CDISC004"
21:"CDISC004"
22:"CDISC004"
23:"CDISC004"
24:"CDISC004"
25:"CDISC004"
26:"CDISC004"
27:"CDISC004"
28:"CDISC004"
29:"CDISC004"
30:"CDISC005"
31:"CDISC005"
32:"CDISC005"
33:"CDISC005"
34:"CDISC005"
35:"CDISC005"
36:"CDISC005"
37:"CDISC005"
38:"CDISC005"
39:"CDISC005"
40:"CDISC005"
41:"CDISC005"
42:"CDISC005"
43:"CDISC005"
44:"CDISC005"
45:"CDISC005"
46:"CDISC005"
47:"CDISC005"
48:"CDISC005"
49:"CDISC005"
50:"CDISC005"
51:"CDISC005"
52:"CDISC008"
53:"CDISC008"
54:"CDISC008"
55:"CDISC008"
56:"CDISC008"
57:"CDISC008"
58:"CDISC008"
59:"CDISC008"
60:"CDISC008"
61:"CDISC008"
62:"CDISC008"
63:"CDISC008"
64:"CDISC008"
65:"CDISC008"
66:"CDISC008"
67:"CDISC008"
68:"CDISC008"
69:"CDISC008"
]
"FOCID":[70 items
0:"OD"
1:"OS"
2:"OS"
3:"OD"
4:"OS"
5:"OS"
6:"OD"
7:"OS"
8:"OS"
9:"OD"
10:"OS"
11:"OS"
12:"OD"
13:"OS"
14:"OS"
15:"OD"
16:"OS"
17:"OS"
18:"OD"
19:"OS"
20:"OS"
21:"OD"
22:"OS"
23:"OS"
24:"OD"
25:"OS"
26:"OS"
27:"OD"
28:"OS"
29:"OS"
30:"OD"
31:"OS"
32:"OD"
33:"OS"
34:"OD"
35:"OS"
36:"OD"
37:"OS"
38:"OD"
39:"OS"
40:"OD"
41:"OS"
42:"OD"
43:"OS"
44:"OD"
45:"OS"
46:"OD"
47:"OS"
48:"OD"
49:"OS"
50:"OD"
51:"OS"
52:"OD"
53:"OS"
54:"OD"
55:"OS"
56:"OD"
57:"OS"
58:"OD"
59:"OS"
60:"OD"
61:"OS"
62:"OD"
63:"OS"
64:"OD"
65:"OS"
66:"OD"
67:"OS"
68:"OD"
69:"OS"
]
"OESEQ":[70 items
0:1
1:2
2:3
3:4
4:5
5:6
6:7
7:8
8:9
9:10
10:11
11:12
12:13
13:14
14:15
15:16
16:17
17:18
18:19
19:20
20:21
21:22
22:23
23:24
24:25
25:26
26:27
27:28
28:29
29:30
30:1
31:2
32:3
33:4
34:5
35:6
36:7
37:8
38:9
39:10
40:11
41:12
42:13
43:14
44:15
45:16
46:17
47:18
48:19
49:20
50:21
51:22
52:1
53:2
54:3
55:4
56:5
57:6
58:7
59:8
60:9
61:10
62:11
63:12
64:13
65:14
66:15
67:16
68:17
69:18
]
"OETESTCD":[70 items
0:"INTP"
1:"INTP"
2:"ABDETAIL"
3:"INTP"
4:"INTP"
5:"ABDETAIL"
6:"INTP"
7:"INTP"
8:"ABDETAIL"
9:"INTP"
10:"INTP"
11:"ABDETAIL"
12:"INTP"
13:"INTP"
14:"ABDETAIL"
15:"INTP"
16:"INTP"
17:"ABDETAIL"
18:"INTP"
19:"INTP"
20:"ABDETAIL"
21:"INTP"
22:"INTP"
23:"ABDETAIL"
24:"INTP"
25:"INTP"
26:"ABDETAIL"
27:"INTP"
28:"INTP"
29:"ABDETAIL"
30:"INTP"
31:"INTP"
32:"INTP"
33:"INTP"
34:"INTP"
35:"INTP"
36:"INTP"
37:"INTP"
38:"INTP"
39:"INTP"
40:"INTP"
41:"INTP"
42:"INTP"
43:"INTP"
44:"INTP"
45:"INTP"
46:"INTP"
47:"INTP"
48:"INTP"
49:"INTP"
50:"INTP"
51:"INTP"
52:"INTP"
53:"INTP"
54:"INTP"
55:"INTP"
56:"INTP"
57:"INTP"
58:"INTP"
59:"INTP"
60:"INTP"
61:"INTP"
62:"INTP"
63:"INTP"
64:"INTP"
65:"INTP"
66:"INTP"
67:"INTP"
68:"INTP"
69:"INTP"
]
"OETEST":[70 items
0:"Interpretation"
1:"Interpretation"
2:"Abnormality Detail"
3:"Interpretation"
4:"Interpretation"
5:"Abnormality Detail"
6:"Interpretation"
7:"Interpretation"
8:"Abnormality Detail"
9:"Interpretation"
10:"Interpretation"
11:"Abnormality Detail"
12:"Interpretation"
13:"Interpretation"
14:"Abnormality Detail"
15:"Interpretation"
16:"Interpretation"
17:"Abnormality Detail"
18:"Interpretation"
19:"Interpretation"
20:"Abnormality Detail"
21:"Interpretation"
22:"Interpretation"
23:"Abnormality Detail"
24:"Interpretation"
25:"Interpretation"
26:"Abnormality Detail"
27:"Interpretation"
28:"Interpretation"
29:"Abnormality Detail"
30:"Interpretation"
31:"Interpretation"
32:"Interpretation"
33:"Interpretation"
34:"Interpretation"
35:"Interpretation"
36:"Interpretation"
37:"Interpretation"
38:"Interpretation"
39:"Interpretation"
40:"Interpretation"
41:"Interpretation"
42:"Interpretation"
43:"Interpretation"
44:"Interpretation"
45:"Interpretation"
46:"Interpretation"
47:"Interpretation"
48:"Interpretation"
49:"Interpretation"
50:"Interpretation"
51:"Interpretation"
52:"Interpretation"
53:"Interpretation"
54:"Interpretation"
55:"Interpretation"
56:"Interpretation"
57:"Interpretation"
58:"Interpretation"
59:"Interpretation"
60:"Interpretation"
61:"Interpretation"
62:"Interpretation"
63:"Interpretation"
64:"Interpretation"
65:"Interpretation"
66:"Interpretation"
67:"Interpretation"
68:"Interpretation"
69:"Interpretation"
]
"OEORRES":[70 items
0:"NORMAL"
1:"ABNORMAL"
2:"PTOSIS"
3:"NORMAL"
4:"ABNORMAL"
5:"PTOSIS"
6:"NORMAL"
7:"ABNORMAL"
8:"PTOSIS"
9:"NORMAL"
10:"ABNORMAL"
11:"PTOSIS"
12:"NORMAL"
13:"ABNORMAL"
14:"PTOSIS"
15:"NORMAL"
16:"ABNORMAL"
17:"PTOSIS"
18:"NORMAL"
19:"ABNORMAL"
20:"PTOSIS"
21:"NORMAL"
22:"ABNORMAL"
23:"PTOSIS"
24:"NORMAL"
25:"ABNORMAL"
26:"PTOSIS"
27:"NORMAL"
28:"ABNORMAL"
29:"PTOSIS"
30:"NORMAL"
31:"NORMAL"
32:"NORMAL"
33:"NORMAL"
34:"NORMAL"
35:"NORMAL"
36:"NORMAL"
37:"NORMAL"
38:"NORMAL"
39:"NORMAL"
40:"NORMAL"
41:"NORMAL"
42:"NORMAL"
43:"NORMAL"
44:"NORMAL"
45:"NORMAL"
46:"NORMAL"
47:"NORMAL"
48:"NORMAL"
49:"NORMAL"
50:"NORMAL"
51:"NORMAL"
52:"NORMAL"
53:"NORMAL"
54:"NORMAL"
55:"NORMAL"
56:"NORMAL"
57:"NORMAL"
58:"NORMAL"
59:"NORMAL"
60:"NORMAL"
61:"NORMAL"
62:"NORMAL"
63:"NORMAL"
64:"NORMAL"
65:"NORMAL"
66:"NORMAL"
67:"NORMAL"
68:"NORMAL"
69:"NORMAL"
]
"OESTRESC":[70 items
0:"NORMAL"
1:"ABNORMAL"
2:"PTOSIS"
3:"NORMAL"
4:"ABNORMAL"
5:"PTOSIS"
6:"NORMAL"
7:"ABNORMAL"
8:"PTOSIS"
9:"NORMAL"
10:"ABNORMAL"
11:"PTOSIS"
12:"NORMAL"
13:"ABNORMAL"
14:"PTOSIS"
15:"NORMAL"
16:"ABNORMAL"
17:"PTOSIS"
18:"NORMAL"
19:"ABNORMAL"
20:"PTOSIS"
21:"NORMAL"
22:"ABNORMAL"
23:"PTOSIS"
24:"NORMAL"
25:"ABNORMAL"
26:"PTOSIS"
27:"NORMAL"
28:"ABNORMAL"
29:"PTOSIS"
30:"NORMAL"
31:"NORMAL"
32:"NORMAL"
33:"NORMAL"
34:"NORMAL"
35:"NORMAL"
36:"NORMAL"
37:"NORMAL"
38:"NORMAL"
39:"NORMAL"
40:"NORMAL"
41:"NORMAL"
42:"NORMAL"
43:"NORMAL"
44:"NORMAL"
45:"NORMAL"
46:"NORMAL"
47:"NORMAL"
48:"NORMAL"
49:"NORMAL"
50:"NORMAL"
51:"NORMAL"
52:"NORMAL"
53:"NORMAL"
54:"NORMAL"
55:"NORMAL"
56:"NORMAL"
57:"NORMAL"
58:"NORMAL"
59:"NORMAL"
60:"NORMAL"
61:"NORMAL"
62:"NORMAL"
63:"NORMAL"
64:"NORMAL"
65:"NORMAL"
66:"NORMAL"
67:"NORMAL"
68:"NORMAL"
69:"NORMAL"
]
"OELOC":[70 items
0:"EYE"
1:"EYE"
2:"IRIS"
3:"EYE"
4:"EYE"
5:"IRIS"
6:"EYE"
7:"EYE"
8:"IRIS"
9:"EYE"
10:"EYE"
11:"IRIS"
12:"EYE"
13:"EYE"
14:"IRIS"
15:"EYE"
16:"EYE"
17:"IRIS"
18:"EYE"
19:"EYE"
20:"IRIS"
21:"EYE"
22:"EYE"
23:"IRIS"
24:"EYE"
25:"EYE"
26:"IRIS"
27:"EYE"
28:"EYE"
29:"IRIS"
30:"EYE"
31:"EYE"
32:"EYE"
33:"EYE"
34:"EYE"
35:"EYE"
36:"EYE"
37:"EYE"
38:"EYE"
39:"EYE"
40:"EYE"
41:"EYE"
42:"EYE"
43:"EYE"
44:"EYE"
45:"EYE"
46:"EYE"
47:"EYE"
48:"EYE"
49:"EYE"
50:"EYE"
51:"EYE"
52:"EYE"
53:"EYE"
54:"EYE"
55:"EYE"
56:"EYE"
57:"EYE"
58:"EYE"
59:"EYE"
60:"EYE"
61:"EYE"
62:"EYE"
63:"EYE"
64:"EYE"
65:"EYE"
66:"EYE"
67:"EYE"
68:"EYE"
69:"EYE"
]
"OELAT":[70 items
0:"RIGHT"
1:"LEFT"
2:"LEFT"
3:"RIGHT"
4:"LEFT"
5:"LEFT"
6:"RIGHT"
7:"LEFT"
8:"LEFT"
9:"RIGHT"
10:"LEFT"
11:"LEFT"
12:"RIGHT"
13:"LEFT"
14:"LEFT"
15:"RIGHT"
16:"LEFT"
17:"LEFT"
18:"RIGHT"
19:"LEFT"
20:"LEFT"
21:"RIGHT"
22:"LEFT"
23:"LEFT"
24:"RIGHT"
25:"LEFT"
26:"LEFT"
27:"RIGHT"
28:"LEFT"
29:"LEFT"
30:"RIGHT"
31:"LEFT"
32:"RIGHT"
33:"LEFT"
34:"RIGHT"
35:"LEFT"
36:"RIGHT"
37:"LEFT"
38:"RIGHT"
39:"LEFT"
40:"RIGHT"
41:"LEFT"
42:"RIGHT"
43:"LEFT"
44:"RIGHT"
45:"LEFT"
46:"RIGHT"
47:"LEFT"
48:"RIGHT"
49:"LEFT"
50:"RIGHT"
51:"LEFT"
52:"RIGHT"
53:"LEFT"
54:"RIGHT"
55:"LEFT"
56:"RIGHT"
57:"LEFT"
58:"RIGHT"
59:"LEFT"
60:"RIGHT"
61:"LEFT"
62:"RIGHT"
63:"LEFT"
64:"RIGHT"
65:"LEFT"
66:"RIGHT"
67:"LEFT"
68:"RIGHT"
69:"LEFT"
]
"OEMETHOD":[70 items
0:"SLIT LAMP"
1:"SLIT LAMP"
2:"SLIT LAMP"
3:"SLIT LAMP"
4:"SLIT LAMP"
5:"SLIT LAMP"
6:"SLIT LAMP"
7:"SLIT LAMP"
8:"SLIT LAMP"
9:"SLIT LAMP"
10:"SLIT LAMP"
11:"SLIT LAMP"
12:"SLIT LAMP"
13:"SLIT LAMP"
14:"SLIT LAMP"
15:"SLIT LAMP"
16:"SLIT LAMP"
17:"SLIT LAMP"
18:"SLIT LAMP"
19:"SLIT LAMP"
20:"SLIT LAMP"
21:"SLIT LAMP"
22:"SLIT LAMP"
23:"SLIT LAMP"
24:"SLIT LAMP"
25:"SLIT LAMP"
26:"SLIT LAMP"
27:"SLIT LAMP"
28:"SLIT LAMP"
29:"SLIT LAMP"
30:"SLIT LAMP"
31:"SLIT LAMP"
32:"SLIT LAMP"
33:"SLIT LAMP"
34:"SLIT LAMP"
35:"SLIT LAMP"
36:"SLIT LAMP"
37:"SLIT LAMP"
38:"SLIT LAMP"
39:"SLIT LAMP"
40:"SLIT LAMP"
41:"SLIT LAMP"
42:"SLIT LAMP"
43:"SLIT LAMP"
44:"SLIT LAMP"
45:"SLIT LAMP"
46:"SLIT LAMP"
47:"SLIT LAMP"
48:"SLIT LAMP"
49:"SLIT LAMP"
50:"SLIT LAMP"
51:"SLIT LAMP"
52:"SLIT LAMP"
53:"SLIT LAMP"
54:"SLIT LAMP"
55:"SLIT LAMP"
56:"SLIT LAMP"
57:"SLIT LAMP"
58:"SLIT LAMP"
59:"SLIT LAMP"
60:"SLIT LAMP"
61:"SLIT LAMP"
62:"SLIT LAMP"
63:"SLIT LAMP"
64:"SLIT LAMP"
65:"SLIT LAMP"
66:"SLIT LAMP"
67:"SLIT LAMP"
68:"SLIT LAMP"
69:"SLIT LAMP"
]
"OELOBXFL":[70 items
0:""
1:""
2:""
3:""
4:""
5:""
6:"Y"
7:"Y"
8:""
9:""
10:""
11:""
12:""
13:""
14:""
15:""
16:""
17:""
18:""
19:""
20:""
21:""
22:""
23:""
24:""
25:""
26:""
27:""
28:""
29:""
30:""
31:""
32:""
33:""
34:"Y"
35:"Y"
36:""
37:""
38:""
39:""
40:""
41:""
42:""
43:""
44:""
45:""
46:""
47:""
48:""
49:""
50:""
51:""
52:""
53:""
54:""
55:""
56:"Y"
57:"Y"
58:""
59:""
60:""
61:""
62:""
63:""
64:""
65:""
66:""
67:""
68:""
69:""
]
"VISITNUM":[70 items
0:1
1:1
2:1
3:2
4:2
5:2
6:3
7:3
8:3
9:4
10:4
11:4
12:5
13:5
14:5
15:8
16:8
17:8
18:9
19:9
20:9
21:10
22:10
23:10
24:11
25:11
26:11
27:12
28:12
29:12
30:1
31:1
32:2
33:2
34:3
35:3
36:4
37:4
38:5
39:5
40:8
41:8
42:9
43:9
44:10
45:10
46:11
47:11
48:12
49:12
50:13
51:13
52:1
53:1
54:2
55:2
56:3
57:3
58:4
59:4
60:5
61:5
62:8
63:8
64:9
65:9
66:10
67:10
68:11
69:11
]
"VISIT":[70 items
0:"SCREENING 1"
1:"SCREENING 1"
2:"SCREENING 1"
3:"SCREENING 2"
4:"SCREENING 2"
5:"SCREENING 2"
6:"BASELINE"
7:"BASELINE"
8:"BASELINE"
9:"WEEK 2"
10:"WEEK 2"
11:"WEEK 2"
12:"WEEK 4"
13:"WEEK 4"
14:"WEEK 4"
15:"WEEK 8"
16:"WEEK 8"
17:"WEEK 8"
18:"WEEK 12"
19:"WEEK 12"
20:"WEEK 12"
21:"WEEK 16"
22:"WEEK 16"
23:"WEEK 16"
24:"WEEK 20"
25:"WEEK 20"
26:"WEEK 20"
27:"WEEK 24"
28:"WEEK 24"
29:"WEEK 24"
30:"SCREENING 1"
31:"SCREENING 1"
32:"SCREENING 2"
33:"SCREENING 2"
34:"BASELINE"
35:"BASELINE"
36:"WEEK 2"
37:"WEEK 2"
38:"WEEK 4"
39:"WEEK 4"
40:"WEEK 8"
41:"WEEK 8"
42:"WEEK 12"
43:"WEEK 12"
44:"WEEK 16"
45:"WEEK 16"
46:"WEEK 20"
47:"WEEK 20"
48:"WEEK 24"
49:"WEEK 24"
50:"WEEK 26"
51:"WEEK 26"
52:"SCREENING 1"
53:"SCREENING 1"
54:"SCREENING 2"
55:"SCREENING 2"
56:"BASELINE"
57:"BASELINE"
58:"WEEK 2"
59:"WEEK 2"
60:"WEEK 4"
61:"WEEK 4"
62:"WEEK 8"
63:"WEEK 8"
64:"WEEK 12"
65:"WEEK 12"
66:"WEEK 16"
67:"WEEK 16"
68:"WEEK 20"
69:"WEEK 20"
]
"EPOCH":[70 items
0:"SCREENING"
1:"SCREENING"
2:"SCREENING"
3:"SCREENING"
4:"SCREENING"
5:"SCREENING"
6:"SCREENING"
7:"SCREENING"
8:"SCREENING"
9:"TREATMENT"
10:"TREATMENT"
11:"TREATMENT"
12:"TREATMENT"
13:"TREATMENT"
14:"TREATMENT"
15:"TREATMENT"
16:"TREATMENT"
17:"TREATMENT"
18:"TREATMENT"
19:"TREATMENT"
20:"TREATMENT"
21:"TREATMENT"
22:"TREATMENT"
23:"TREATMENT"
24:"TREATMENT"
25:"TREATMENT"
26:"TREATMENT"
27:"TREATMENT"
28:"TREATMENT"
29:"TREATMENT"
30:"SCREENING"
31:"SCREENING"
32:"SCREENING"
33:"SCREENING"
34:"SCREENING"
35:"SCREENING"
36:"TREATMENT"
37:"TREATMENT"
38:"TREATMENT"
39:"TREATMENT"
40:"TREATMENT"
41:"TREATMENT"
42:"TREATMENT"
43:"TREATMENT"
44:"TREATMENT"
45:"TREATMENT"
46:"TREATMENT"
47:"TREATMENT"
48:"TREATMENT"
49:"TREATMENT"
50:"TREATMENT"
51:"TREATMENT"
52:"SCREENING"
53:"SCREENING"
54:"SCREENING"
55:"SCREENING"
56:"SCREENING"
57:"SCREENING"
58:"TREATMENT"
59:"TREATMENT"
60:"TREATMENT"
61:"TREATMENT"
62:"TREATMENT"
63:"TREATMENT"
64:"TREATMENT"
65:"TREATMENT"
66:"TREATMENT"
67:"TREATMENT"
68:"TREATMENT"
69:"TREATMENT"
]
"OEDTC":[70 items
0:"2013-10-01"
1:"2013-10-01"
2:"2013-10-01"
3:"2013-10-06"
4:"2013-10-06"
5:"2013-10-06"
6:"2013-10-08"
7:"2013-10-08"
8:"2013-10-08"
9:"2013-10-24"
10:"2013-10-24"
11:"2013-10-24"
12:"2013-11-08"
13:"2013-11-08"
14:"2013-11-08"
15:"2013-12-03"
16:"2013-12-03"
17:"2013-12-03"
18:"2013-12-31"
19:"2013-12-31"
20:"2013-12-31"
21:"2014-01-27"
22:"2014-01-27"
23:"2014-01-27"
24:"2014-02-25"
25:"2014-02-25"
26:"2014-02-25"
27:"2014-03-18"
28:"2014-03-18"
29:"2014-03-18"
30:"2013-01-22"
31:"2013-01-22"
32:"2013-02-02"
33:"2013-02-02"
34:"2013-02-04"
35:"2013-02-04"
36:"2013-02-19"
37:"2013-02-19"
38:"2013-03-12"
39:"2013-03-12"
40:"2013-04-02"
41:"2013-04-02"
42:"2013-04-30"
43:"2013-04-30"
44:"2013-05-30"
45:"2013-05-30"
46:"2013-06-25"
47:"2013-06-25"
48:"2013-07-30"
49:"2013-07-30"
50:"2013-08-06"
51:"2013-08-06"
52:"2014-05-01"
53:"2014-05-01"
54:"2014-05-09"
55:"2014-05-09"
56:"2014-05-11"
57:"2014-05-11"
58:"2014-05-25"
59:"2014-05-25"
60:"2014-06-11"
61:"2014-06-11"
62:"2014-07-09"
63:"2014-07-09"
64:"2014-08-06"
65:"2014-08-06"
66:"2014-09-03"
67:"2014-09-03"
68:"2014-10-01"
69:"2014-10-01"
]
"OEDY":[70 items
0:-7
1:-7
2:-7
3:-2
4:-2
5:-2
6:1
7:1
8:1
9:17
10:17
11:17
12:32
13:32
14:32
15:57
16:57
17:57
18:85
19:85
20:85
21:112
22:112
23:112
24:141
25:141
26:141
27:162
28:162
29:162
30:-13
31:-13
32:-2
33:-2
34:1
35:1
36:16
37:16
38:37
39:37
40:58
41:58
42:86
43:86
44:116
45:116
46:142
47:142
48:177
49:177
50:184
51:184
52:-10
53:-10
54:-2
55:-2
56:1
57:1
58:15
59:15
60:32
61:32
62:60
63:60
64:88
65:88
66:116
67:116
68:144
69:144
]
}
}
2:{5 items
"filename":"sv.xpt"
"label":"Subject Visits"
"domain":"SV"
"variables":[12 items
0:{4 items
"name":"STUDYID"
"label":"Study Identifier"
"type":"Char"
"length":12
}
1:{4 items
"name":"DOMAIN"
"label":"Domain Abbreviation"
"type":"Char"
"length":2
}
2:{4 items
"name":"USUBJID"
"label":"Unique Subject Identifier"
"type":"Char"
"length":8
}
3:{4 items
"name":"VISITNUM"
"label":"Visit Number"
"type":"Num"
"length":8
}
4:{4 items
"name":"VISIT"
"label":"Visit Name"
"type":"Char"
"length":200
}
5:{4 items
"name":"SVPRESP"
"label":"Pre-specified"
"type":"Char"
"length":1
}
6:{4 items
"name":"SVOCCUR"
"label":"Occurrence"
"type":"Char"
"length":1
}
7:{4 items
"name":"SVSTDTC"
"label":"Start Date/Time of Visit"
"type":"Char"
"length":10
}
8:{4 items
"name":"SVENDTC"
"label":"End Date/Time of Visit"
"type":"Char"
"length":10
}
9:{4 items
"name":"SVSTDY"
"label":"Study Day of Start of Visit"
"type":"Num"
"length":8
}
10:{4 items
"name":"SVENDY"
"label":"Study Day of End of Visit"
"type":"Num"
"length":8
}
11:{4 items
"name":"SVUPDES"
"label":"Description of Unplanned Visit"
"type":"Char"
"length":200
}
]
"records":{12 items
"STUDYID":[35 items
0:"CDISCPILOT01"
1:"CDISCPILOT01"
2:"CDISCPILOT01"
3:"CDISCPILOT01"
4:"CDISCPILOT01"
5:"CDISCPILOT01"
6:"CDISCPILOT01"
7:"CDISCPILOT01"
8:"CDISCPILOT01"
9:"CDISCPILOT01"
10:"CDISCPILOT01"
11:"CDISCPILOT01"
12:"CDISCPILOT01"
13:"CDISCPILOT01"
14:"CDISCPILOT01"
15:"CDISCPILOT01"
16:"CDISCPILOT01"
17:"CDISCPILOT01"
18:"CDISCPILOT01"
19:"CDISCPILOT01"
20:"CDISCPILOT01"
21:"CDISCPILOT01"
22:"CDISCPILOT01"
23:"CDISCPILOT01"
24:"CDISCPILOT01"
25:"CDISCPILOT01"
26:"CDISCPILOT01"
27:"CDISCPILOT01"
28:"CDISCPILOT01"
29:"CDISCPILOT01"
30:"CDISCPILOT01"
31:"CDISCPILOT01"
32:"CDISCPILOT01"
33:"CDISCPILOT01"
34:"CDISCPILOT01"
]
"DOMAIN":[35 items
0:"SV"
1:"SV"
2:"SV"
3:"SV"
4:"SV"
5:"SV"
6:"SV"
7:"SV"
8:"SV"
9:"SV"
10:"SV"
11:"SV"
12:"SV"
13:"SV"
14:"SV"
15:"SV"
16:"SV"
17:"SV"
18:"SV"
19:"SV"
20:"SV"
21:"SV"
22:"SV"
23:"SV"
24:"SV"
25:"SV"
26:"SV"
27:"SV"
28:"SV"
29:"SV"
30:"SV"
31:"SV"
32:"SV"
33:"SV"
34:"SV"
]
"USUBJID":[35 items
0:"CDISC004"
1:"CDISC004"
2:"CDISC004"
3:"CDISC004"
4:"CDISC004"
5:"CDISC004"
6:"CDISC004"
7:"CDISC004"
8:"CDISC004"
9:"CDISC004"
10:"CDISC004"
11:"CDISC005"
12:"CDISC005"
13:"CDISC005"
14:"CDISC005"
15:"CDISC005"
16:"CDISC005"
17:"CDISC005"
18:"CDISC005"
19:"CDISC005"
20:"CDISC005"
21:"CDISC005"
22:"CDISC005"
23:"CDISC008"
24:"CDISC008"
25:"CDISC008"
26:"CDISC008"
27:"CDISC008"
28:"CDISC008"
29:"CDISC008"
30:"CDISC008"
31:"CDISC008"
32:"CDISC008"
33:"CDISC008"
34:"CDISC008"
]
"VISITNUM":[35 items
0:1
1:2
2:3
3:4
4:5
5:7
6:8
7:9
8:10
9:11
10:12
11:1
12:2
13:3
14:4
15:5
16:7
17:8
18:9
19:10
20:11
21:12
22:13
23:1
24:1.01
25:2
26:3
27:4
28:5
29:7
30:8
31:9
32:10
33:11
34:12
]
"VISIT":[35 items
0:"SCREENING 1"
1:"SCREENING 2"
2:"BASELINE"
3:"WEEK 2"
4:"WEEK 4"
5:"WEEK 6"
6:"WEEK 8"
7:"WEEK 12"
8:"WEEK 16"
9:"WEEK 20"
10:"WEEK 24"
11:"SCREENING 1"
12:"SCREENING 2"
13:"BASELINE"
14:"WEEK 2"
15:"WEEK 4"
16:"WEEK 6"
17:"WEEK 8"
18:"WEEK 12"
19:"WEEK 16"
20:"WEEK 20"
21:"WEEK 24"
22:"WEEK 26"
23:"SCREENING 1"
24:"SCREENING 1: UNSCHEDULED 01"
25:"SCREENING 2"
26:"BASELINE"
27:"WEEK 2"
28:"WEEK 4"
29:"WEEK 6"
30:"WEEK 8"
31:"WEEK 12"
32:"WEEK 16"
33:"WEEK 20"
34:"WEEK 24"
]
"SVPRESP":[35 items
0:"Y"
1:"Y"
2:"Y"
3:"Y"
4:"Y"
5:"Y"
6:"Y"
7:"Y"
8:"Y"
9:"Y"
10:"Y"
11:"Y"
12:"Y"
13:"Y"
14:"Y"
15:"Y"
16:"Y"
17:"Y"
18:"Y"
19:"Y"
20:"Y"
21:"Y"
22:"Y"
23:"Y"
24:""
25:"Y"
26:"Y"
27:"Y"
28:"Y"
29:"Y"
30:"Y"
31:"Y"
32:"Y"
33:"Y"
34:"Y"
]
"SVOCCUR":[35 items
0:"Y"
1:"Y"
2:"Y"
3:"Y"
4:"Y"
5:"Y"
6:"Y"
7:"Y"
8:"Y"
9:"Y"
10:"Y"
11:"Y"
12:"Y"
13:"Y"
14:"Y"
15:"Y"
16:"Y"
17:"Y"
18:"Y"
19:"Y"
20:"Y"
21:"Y"
22:"Y"
23:"Y"
24:""
25:"Y"
26:"Y"
27:"Y"
28:"Y"
29:"Y"
30:"Y"
31:"Y"
32:"Y"
33:"Y"
34:"Y"
]
"SVSTDTC":[35 items
0:"2013-10-01"
1:"2013-10-06"
2:"2013-10-08"
3:"2013-10-24"
4:"2013-11-08"
5:"2013-11-19"
6:"2013-12-03"
7:"2013-12-31"
8:"2014-01-27"
9:"2014-02-25"
10:"2014-03-18"
11:"2013-01-22"
12:"2013-02-02"
13:"2013-02-04"
14:"2013-02-19"
15:"2013-03-12"
16:"2013-03-19"
17:"2013-04-02"
18:"2013-04-30"
19:"2013-05-30"
20:"2013-06-25"
21:"2013-07-30"
22:"2013-08-06"
23:"2014-05-01"
24:"2014-05-03"
25:"2014-05-09"
26:"2014-05-11"
27:"2014-05-25"
28:"2014-06-11"
29:"2014-06-25"
30:"2014-07-09"
31:"2014-08-06"
32:"2014-09-03"
33:"2014-10-01"
34:"2014-10-31"
]
"SVENDTC":[35 items
0:"2013-10-01"
1:"2013-10-06"
2:"2013-10-08"
3:"2013-10-24"
4:"2013-11-08"
5:"2013-11-19"
6:"2013-12-18"
7:"2014-01-14"
8:"2014-02-11"
9:"2014-03-11"
10:"2014-03-18"
11:"2013-01-22"
12:"2013-02-02"
13:"2013-02-04"
14:"2013-02-19"
15:"2013-03-12"
16:"2013-03-19"
17:"2013-04-02"
18:"2013-04-30"
19:"2013-05-30"
20:"2013-06-25"
21:"2013-07-30"
22:"2013-08-06"
23:"2014-05-01"
24:"2014-05-03"
25:"2014-05-09"
26:"2014-05-11"
27:"2014-05-25"
28:"2014-06-11"
29:"2014-06-25"
30:"2014-07-09"
31:"2014-08-06"
32:"2014-09-03"
33:"2014-10-01"
34:"2014-10-31"
]
"SVSTDY":[35 items
0:-7
1:-2
2:1
3:17
4:32
5:43
6:57
7:85
8:112
9:141
10:162
11:-13
12:-2
13:1
14:16
15:37
16:44
17:58
18:86
19:116
20:142
21:177
22:184
23:-10
24:-8
25:-2
26:1
27:15
28:32
29:46
30:60
31:88
32:116
33:144
34:174
]
"SVENDY":[35 items
0:-7
1:-2
2:1
3:17
4:32
5:43
6:72
7:99
8:127
9:155
10:162
11:-13
12:-2
13:1
14:16
15:37
16:44
17:58
18:86
19:116
20:142
21:177
22:184
23:-10
24:-8
25:-2
26:1
27:15
28:32
29:46
30:60
31:88
32:116
33:144
34:174
]
"SVUPDES":[35 items
0:""
1:""
2:""
3:""
4:""
5:""
6:""
7:""
8:""
9:""
10:""
11:""
12:""
13:""
14:""
15:""
16:""
17:""
18:""
19:""
20:""
21:""
22:""
23:""
24:"UNSCHEDULED LABS"
25:""
26:""
27:""
28:""
29:""
30:""
31:""
32:""
33:""
34:"Updated as subject died"
]
}
}
3:{5 items
"filename":"tv.xpt"
"label":"Trial Visits"
"domain":"TV"
"variables":[7 items
0:{4 items
"name":"STUDYID"
"label":"Study Identifier"
"type":"Char"
"length":12
}
1:{4 items
"name":"DOMAIN"
"label":"Domain Abbreviation"
"type":"Char"
"length":2
}
2:{4 items
"name":"VISITNUM"
"label":"Visit Number"
"type":"Num"
"length":8
}
3:{4 items
"name":"VISIT"
"label":"Visit Name"
"type":"Char"
"length":200
}
4:{4 items
"name":"ARMCD"
"label":"Planned Arm Code"
"type":"Char"
"length":8
}
5:{4 items
"name":"TVSTRL"
"label":"Visit Start Rule"
"type":"Char"
"length":200
}
6:{4 items
"name":"TVENRL"
"label":"Visit End Rule"
"type":"Char"
"length":200
}
]
"records":{7 items
"STUDYID":[12 items
0:"CDISCPILOT01"
1:"CDISCPILOT01"
2:"CDISCPILOT01"
3:"CDISCPILOT01"
4:"CDISCPILOT01"
5:"CDISCPILOT01"
6:"CDISCPILOT01"
7:"CDISCPILOT01"
8:"CDISCPILOT01"
9:"CDISCPILOT01"
10:"CDISCPILOT01"
11:"CDISCPILOT01"
]
"DOMAIN":[12 items
0:"TV"
1:"TV"
2:"TV"
3:"TV"
4:"TV"
5:"TV"
6:"TV"
7:"TV"
8:"TV"
9:"TV"
10:"TV"
11:"TV"
]
"VISITNUM":[12 items
0:1
1:2
2:3
3:4
4:5
5:7
6:8
7:9
8:10
9:11
10:12
11:13
]
"VISIT":[12 items
0:"SCREENING 1"
1:"SCREENING 2"
2:"BASELINE"
3:"WEEK 2"
4:"WEEK 4"
5:"WEEK 6"
6:"WEEK 8"
7:"WEEK 12"
8:"WEEK 16"
9:"WEEK 20"
10:"WEEK 24"
11:"WEEK 26"
]
"ARMCD":[12 items
0:""
1:""
2:""
3:""
4:""
5:""
6:""
7:""
8:""
9:""
10:""
11:""
]
"TVSTRL":[12 items
0:"Informed Consent Obtained"
1:"Day Before Initial Study Treatment"
2:"Day of Initial Study Treatment"
3:"2 Weeks After Start of Study Treatment"
4:"4 Weeks After Start of Study Treatment"
5:"6 Weeks After Start of Study Treatment"
6:"8 Weeks After Start of Study Treatment"
7:"12 Weeks After Start of Study Treatment"
8:"16 Weeks After Start of Study Treatment"
9:"20 Weeks After Start of Study Treatment"
10:"24 Weeks After Start of Study Treatment"
11:"26 Weeks After Start of Study Treatment"
]
"TVENRL":[12 items
0:"Screening Assessments Completed"
1:""
2:""
3:""
4:""
5:""
6:""
7:""
8:""
9:""
10:""
11:""
]
}
}
4:{5 items
"filename":"vs.xpt"
"label":"Vital Signs"
"domain":"VS"
"variables":[21 items
0:{4 items
"name":"STUDYID"
"label":"Study Identifier"
"type":"Char"
"length":12
}
1:{4 items
"name":"DOMAIN"
"label":"Domain Abbreviation"
"type":"Char"
"length":2
}
2:{4 items
"name":"USUBJID"
"label":"Unique Subject Identifier"
"type":"Char"
"length":8
}
3:{4 items
"name":"VSSEQ"
"label":"Sequence Number"
"type":"Num"
"length":8
}
4:{4 items
"name":"VSTESTCD"
"label":"Vital Signs Test Short Name"
"type":"Char"
"length":6
}
5:{4 items
"name":"VSTEST"
"label":"Vital Signs Test Name"
"type":"Char"
"length":24
}
6:{4 items
"name":"VSPOS"
"label":"Vital Signs Position of Subject"
"type":"Char"
"length":8
}
7:{4 items
"name":"VSORRES"
"label":"Result or Finding in Original Units"
"type":"Char"
"length":8
}
8:{4 items
"name":"VSORRESU"
"label":"Original Units"
"type":"Char"
"length":9
}
9:{4 items
"name":"VSSTRESC"
"label":"Character Result/Finding in Std Format"
"type":"Char"
"length":200
}
10:{4 items
"name":"VSSTRESN"
"label":"Numeric Result/Finding in Standard Units"
"type":"Num"
"length":8
}
11:{4 items
"name":"VSSTRESU"
"label":"Standard Units"
"type":"Char"
"length":9
}
12:{4 items
"name":"VSSTAT"
"label":"Completion Status"
"type":"Char"
"length":8
}
13:{4 items
"name":"VSLOC"
"label":"Location of Vital Signs Measurement"
"type":"Char"
"length":11
}
14:{4 items
"name":"VSLOBXFL"
"label":"Last Observation Before Exposure Flag"
"type":"Char"
"length":1
}
15:{4 items
"name":"VSREPNUM"
"label":"Repetition Number"
"type":"Num"
"length":8
}
16:{4 items
"name":"VISITNUM"
"label":"Visit Number"
"type":"Num"
"length":8
}
17:{4 items
"name":"VISIT"
"label":"Visit Name"
"type":"Char"
"length":200
}
18:{4 items
"name":"EPOCH"
"label":"Epoch"
"type":"Char"
"length":9
}
19:{4 items
"name":"VSDTC"
"label":"Date/Time of Measurements"
"type":"Char"
"length":10
}
20:{4 items
"name":"VSDY"
"label":"Study Day of Vital Signs"
"type":"Num"
"length":8
}
]
"records":{21 items
"STUDYID":363 items
[0 - 100]
[100 - 200]
[200 - 300]
[300 - 363]
"DOMAIN":363 items
[0 - 100]
[100 - 200]
[200 - 300]
[300 - 363]
"USUBJID":363 items
[0 - 100]
[100 - 200]
[200 - 300]
[300 - 363]
"VSSEQ":363 items
[0 - 100]
[100 - 200]
[200 - 300]
[300 - 363]
"VSTESTCD":363 items
[0 - 100]
[100 - 200]
[200 - 300]
[300 - 363]
"VSTEST":363 items
[0 - 100]
[100 - 200]
[200 - 300]
[300 - 363]
"VSPOS":363 items
[0 - 100]
[100 - 200]
[200 - 300]
[300 - 363]
"VSORRES":363 items
[0 - 100]
[100 - 200]
[200 - 300]
[300 - 363]
"VSORRESU":363 items
[0 - 100]
[100 - 200]
[200 - 300]
[300 - 363]
"VSSTRESC":363 items
[0 - 100]
[100 - 200]
[200 - 300]
[300 - 363]
"VSSTRESN":363 items
[0 - 100]
[100 - 200]
[200 - 300]
[300 - 363]
"VSSTRESU":363 items
[0 - 100]
[100 - 200]
[200 - 300]
[300 - 363]
"VSSTAT":363 items
[0 - 100]
[100 - 200]
[200 - 300]
[300 - 363]
"VSLOC":363 items
[0 - 100]
[100 - 200]
[200 - 300]
[300 - 363]
"VSLOBXFL":363 items
[0 - 100]
[100 - 200]
[200 - 300]
[300 - 363]
"VSREPNUM":363 items
[0 - 100]
[100 - 200]
[200 - 300]
[300 - 363]
"VISITNUM":363 items
[0 - 100]
[100 - 200]
[200 - 300]
[300 - 363]
"VISIT":363 items
[0 - 100]
[100 - 200]
[200 - 300]
[300 - 363]
"EPOCH":363 items
[0 - 100]
[100 - 200]
[200 - 300]
[300 - 363]
"VSDTC":363 items
[0 - 100]
[100 - 200]
[200 - 300]
[300 - 363]
"VSDY":363 items
[0 - 100]
[100 - 200]
[200 - 300]
[300 - 363]
}
}
]
"codelists":[]0 items
}