STUDYID,DOMAIN,USUBJID,MHSEQ,MHCAT,MHTERM,MHLLT,MHLLTCD,MHDECOD,MHPTCD,MHHLT,MHHLTCD,MHHLGT,MHHLGTCD,MHBODSYS,MHBDSYCD,MHSOC,MHSOCCD,MHSTDTC,MHSTDY
CDISCPILOT01,MH,CDISC010,1,GENERAL,KNEE SURGERY NOS,Knee surgery NOS,10049662,Knee operation,10049548,Joint therapeutic procedures,10023221,Bone and joint therapeutic procedures,10005944,SURGICAL HISTORY,MUSCULOSKELETAL AND CONNECTIVE TISSUE DISORDERS,Surgical and medical procedures,10042613,2025-01-12,-8
CDISCPILOT01,MH,CDISC011,1,GENERAL,KNEE SURGERY NOS,Knee surgery NOS,10049662,Knee operation,10049548,Joint therapeutic procedures,10023221,Bone and joint therapeutic procedures,10005944,SURGICAL HISTORY,MUSCULOSKELETAL AND CONNECTIVE TISSUE DISORDERS,Surgical and medical procedures,10042613,2025-01-13,-9
CDISCPILOT01,MH,CDISC012,1,GENERAL,MENOPAUSE,Menopause,10027308,Menopause,10027308,Age related issues,10001475,Age related factors,10001474,MEDICAL HISTORY,REPRODUCTIVE SYSTEM AND BREAST DISORDERS,Social circumstances,10041244,2025-01-14,-10
CDISCPILOT01,MH,CDISC012,1,GENERAL,NICKEL ALLERGY,Nickel allergy,10088472,Allergy to metals,10066414,Allergic conditions NEC,10027654,Allergic conditions,10001708,MEDICAL HISTORY,IMMUNE SYSTEM DISORDERS,Immune system disorders,10021428,2025-01-15,-11
CDISCPILOT01,MH,CDISC012,1,GENERAL,SHOULDER DISLOCATION,Shoulder dislocation,10040612,Joint dislocation,10023204,Fractures and dislocations NEC,10027677,Bone and joint injuries,10005942,SURGICAL HISTORY,MUSCULOSKELETAL AND CONNECTIVE TISSUE DISORDERS,"Injury, poisoning and procedural complications",10022117,2025-01-16,-12
