STUDYID,DOMAIN,USUBJID,FASEQ,FAGRPID,FATESTCD,FATEST,FAOBJ,FACAT,FAORRES,FASTRESC,FALOC,EPOCH,FADTC,FADY
CDISCPILOT01,FA,CDISC001,1,1,OCCUR,Occurrence Indicator,ERYTHEMA,INJECTION SITE REACTION,Y,Y,ARM,TREATMENT,2012-12-02,3
CDISCPILOT01,FA,CDISC002,1,1,OTHEROCC,Occurrence Indicator,ERYTHEMA,INJECTION SITE REACTION,Y,Y,ARM,TREATMENT,2012-12-02,3
