dataset,variable,label,type,length
mh,STUDYID,Study Identifier,Char,12
mh,DOMAIN,Domain Abbreviation,Char,2
mh,USUBJID,Unique Subject Identifier,Char,8
mh,MHSEQ,Sequence Number,Num,8
mh,MHTERM,Reported Term for the Medical History,Char,19
mh,MHEVDTYP,Medical History Event Date Type,Char,13
mh,MHSTDTC,Start Date/Time of Medical History Event,Char,10
mh,MHSTDY,Study Day of Start of Observation,Num,8
mh,MIDS,"Disease Milestone
Instance Name",Char,8
tm,STUDYID,Study Identifier,Char,12
tm,DOMAIN,Domain Abbreviation,Char,2
tm,MIDSTYPE,"Disease Milestone
Type",Char,8
tm,TMDEF,"Disease Milestone
Definition",Char,8
tm,TMRPT,"Disease Milestone
Repetition Indicator",Char,19
