STUDYID,DOMAIN,USUBJID,DSTERM,DSDECOD,DSCAT,EPOCH,DSSTDTC
CDISCCORE01,DS,015246-076-0003-00003,FUTURE USE OF SAMPLES INFORMED CONSENT OBTAINED,FUTURE USE OF SAMPLES INFORMED CONSENT OBTAINED,DISPOSITION EVENT,SCREENING,2018-03-06
CDISCCORE01,DS,015246-076-0003-00003,STUDY INFORMED CONSENT OBTAINED,STUDY INFORMED CONSENT OBTAINED,DISPOSITION EVENT,,2018-03-06
CDISCCORE01,DS,015246-076-0003-00003,ADVERSE EVENT,COMPLETED,DISPOSITION EVENT,FU,2018-03-30
CDISCCORE01,DS,015246-036-0002-00004,ADVERSE EVENT,COMPLETED,DISPOSITION EVENT,SCREENING,2018-03-30T13:05
CDISCCORE01,DS,015246-036-0002-00004,SIGNED,COMPLETED,PROTOCOL MILESTONE,,2018-03-30T13:05
CDISCCORE01,DS,015246-036-0002-00004,SIGNED,COMPLETED,PROTOCOL MILESTONE,,2019-03-30T13:05
