STUDYID,DOMAIN,USUBJID,SCSEQ,SCGRPID,SCSPID,SCTESTCD,SCTEST,SCCAT,SCSCAT,SCORRES,SCORRESU,SCSTRESC,SCSTRESN,SCSTRESU,SCSTAT,SCREASND,VISITNUM,VISIT,VISITDY,TAETORD,EPOCH,SCDTC,SCDY
TEST,SC,001,1,,,GRADDT,Date of high school graduation,,,28-02-2000,,,,,,,,,,,,,
TEST,SC,001,1,,,TIMEX,Time of X,,,09:45,,,,,,,,,,,,,
