STUDYID,DOMAIN,USUBJID,FTSEQ,FTTESTCD,FTTEST,FTCAT,FTSCAT,FTORRES,FTSTRESC,FTSTRESN,FTLOBXFL,FTREPNUM,VISITNUM,VISIT,EPOCH,FTDTC,FTDY,FTTPT,FTTPTNUM,FTELTM,FTTPTREF,FTSTAT,FTDRVFL
CDISCPILOT01,FT,CDISC001,1,AVL0201,AVL02-List A Word 1,AVLT-REY,FORM 1,RECALLED,RECALLED,,Y,1,2,SCREENING 2,SCREENING,2012-11-28T12:00,-2,,,,,,
CDISCPILOT01,FT,CDISC001,2,AVL0202,AVL02-List A Word 2,AVLT-REY,FORM 1,RECALLED,RECALLED,,Y,1,2,SCREENING 2,SCREENING,2012-11-28T12:00,-2,,,,,,
