STUDYID,DOMAIN,USUBJID,LBSEQ,LBTESTCD,LBTEST,LBCAT,LBORRES,LBORRESU,LBSTRESC,LBSTRESN,LBSTRESU,LBSTAT,LBREASND,LBDTC,LBDY,LBNOMDY,LBNOMLBL,LBTPT,LBTPTNUM,LBELTM,LBTPTREF,LBRFTDTC
CDISCPILOT01,LB,CDISC001,1,ALB,Albumin,CHEMISTRY,3.9,g/dL,39,39,g/L,,,2012-11-23T11:20,8,8,Day 8,1 Hr PD,1,PT1H,Day 8 Dose,2012-11-23T10:16
CDISCPILOT01,LB,CDISC001,2,ALP,Alkaline Phosphatase,CHEMISTRY,93,U/L,93,93,U/L,,,2012-11-23T11:20,8,8,Day 8,1 Hr PD,1,PT1H,Day 8 Dose,2012-11-23T10:16
CDISCPILOT01,LB,CDISC002,2,ALP,Alkaline Phosphatase,CHEMISTRY,93,U/L,93,93,U/L,,,2012-11-23T12:21,8,8,Day 8,2 Hr PD,2,PT2H,Day 8 Dose,2012-11-23T10:18
CDISCPILOT01,LB,CDISC003,2,ALP,Alkaline Phosphatase,CHEMISTRY,,,,,,NOT DONE,sample broken,2012-11-23T12:21,8,8,Day 8,2 Hr PD,2,PT2H,Day 8 Dose,2012-11-23T10:19
