STUDYID,DOMAIN,USUBJID,SUBJID,RFSTDTC,RFENDTC,RFXSTDTC,RFXENDTC,RFICDTC,RFPENDTC,DTHDTC,DTHFL,SITEID,BRTHDTC,AGE,AGEU,SEX,RACE,ETHNIC,ARMCD,ARM,ACTARMCD,ACTARM,ARMNRS,COUNTRY
CDISCPILOT01,DM,CDISC001,1115,,2013-01-23,2012-11-30,2013-01-23,2012-11-23,2013-05-20,,,701,1928,84,YEARS,M,WHITE,NOT HISPANIC OR LATINO,,,,,SCREEN FAILURE,USA
CDISCPILOT01,DM,CDISC002,1211,,2013-01-14,2012-11-15,2013-01-12,2012-10-30,2013-01-14,2013-01-14,Y,701,1936,76,YEARS,F,WHITE,NOT HISPANIC OR LATINO,ZAN_LOW,Zanomaline Low Dose (54 mg),,,"ASSIGNED, NOT TREATED",USA
CDISCPILOT01,DM,CDISC003,1302,2013-08-29,2013-11-05,2013-08-29,2013-11-05,2013-08-20,2014-02-13,,,701,1951,,YEARS,M,WHITE,NOT HISPANIC OR LATINO,ZAN_HIGH,Zanomaline High Dose (81 mg),ZAN_HIGH,Zanomaline High Dose (81 mg),,USA
CDISCPILOT01,DM,CDISC004,1345,,2014-03-18,2013-10-08,2014-03-18,2013-10-01,2014-03-18,,,701,1950,63,YEARS,F,WHITE,NOT HISPANIC OR LATINO,,,,,NOT ASSIGNED,USA
CDISCPILOT01,DM,CDISC008,1445,2014-05-11,2014-11-01,2014-05-11,2014-11-01,,2014-11-01,2014-11-01,,704,1939,75,YEARS,M,MULTIPLE,NOT HISPANIC OR LATINO,PLACEBO,Placebo,PLACEBO,Placebo,UNPLANNED TREATMENT,USA
