STUDYID,DOMAIN,USUBJID,AETERM,AEOUT,AEENDTC,AEDUR
CDISCPILOT01,AE,CDISC001,Nausea,RECOVERED/RESOLVED,2005-10-13,
CDISCPILOT01,AE,CDISC002,Vomiting,RECOVERED/RESOLVED,,P1DT2H
CDISCPILOT01,AE,CDISC003,Headache,RECOVERED/RESOLVED,2006-05,
CDISCPILOT01,AE,CDISC004,Heart Failure,FATAL,,
