STUDYID,USUBJID,SUBJID,SITEID,AESEQ,SRCDOM,SRCSEQ,ASEQ,AETERM,AEDECOD,AELLTCD,AEPTCD,AEHLT,--HLTCD,--HLGT,--HLGTCD,--SOC,--SOCCD,CMTRT,CMDECOD,CMCLAS,CMCLASCD,ATCy,ATCyCD,--CAT,--SCAT,ACATy,AESTDTC,ASTDT,ASTTM,ASTDTM,ASTDTF,ASTTMF,AEENDTC,AENDT,AENTM,AENDTM,AENDTF,AENTMF,ASTDY,AESTDY,AENDY,ADURN,ADURU,AEDUR,APERIOD,APERIODC,APHASE,AEOCCUR,AEPRESP,ANL01FL,TRTEMFL,TREM01FL,FUPFL,AESEV,AESEVN,ASEV,ASEVN
STUDY1,STUDY1_122222,122222,1,,,,,BLOOD PRESSURE INCREASED,BLOOD PRESSURE INCREASED,,,RECOVERED/RESOLVED,POSSIBLY,,,,,,,,,,,,,,,,,,,,,,,,,,,,,25,Days,,,,,,,,Y,,Y,MILD,1,Mild,1
STUDY1,STUDY1_122222,122222,1,,,,,BLOOD PRESSURE INCREASED,BLOOD PRESSURE INCREASED,,,RECOVERED/RESOLVED,POSSIBLY,,,,,,,,,,,,,,,,,,,,,,,,,,,,,,Days,,,,,,,,,,,MODERATE,2,Moderate,2
STUDY1,STUDY1_122222,122222,1,,,,,BLOOD PRESSURE INCREASED,BLOOD PRESSURE INCREASED,,,RECOVERED/RESOLVED,POSSIBLY,,,,,,,,,,,,,,,,,,,,,,,,,,,,,,,,,,,,,,,,Y,SEVERE,1,Severe,1
