STUDYID,DOMAIN,RDOMAIN,USUBJID,COSEQ,IDVAR,IDVARVAL,COREF,COVAL,COEVAL,COEVALID,CODTC,CODY
1234,CO,,AB-59,1,,,,Comment text,"PRINCIPAL INVESTIGATOR",,"2003-11-08",
1234,CO,AE,AB-59,2,AESEQ,7,PAGE 650,"First 200 characters","PRINCIPAL INVESTIGATOR",,,
