dataset,variable,label,type,length
sv.xpt,STUDYID,Study Identifier,Char,12
sv.xpt,DOMAIN,Domain Abbreviation,Char,2
sv.xpt,USUBJID,Unique Subject Identifier,Char,15
sv.xpt,SUBJID,Subject Identifier for the Study,Char,7
sv.xpt,VISITNUM,Visit Number,Num,8
sv.xpt,VISIT,Visit Name,Char,17
sv.xpt,VISITDY,Planned Study Day of Visit,Num,8
sv.xpt,EPOCH,Epoch,Char,20
sv.xpt,SVSTDTC,Start Date/Time of Visit,Char,10
sv.xpt,SVENDTC,End Date/Time of Visit,Num,8
sv.xpt,SVSTDY,Study Day of Start of Visit,Num,8
sv.xpt,SVENDY,Study Day of End of Visit,Num,8
sv.xpt,SVUPDES,Description of Unplanned Visit,Char,30
tv.xpt,STUDYID,Study Identifier,Char,12
tv.xpt,DOMAIN,Domain Abbreviation,Char,2
tv.xpt,VISITNUM,Visit Number,Num,8
tv.xpt,VISIT,Visit Name,Char,9
tv.xpt,VISITDY,Planned Study Day of Visit,Num,8
tv.xpt,ARMCD,Planned Arm Code,Char,1
tv.xpt,ARM,Description of Arm,Char,1
tv.xpt,TVSTRL,Visit Start Rule,Num,52
tv.xpt,TVENRL,Visit End Rule,Num,1
