STUDYID,DOMAIN,USUBJID,RESEQ,RETESTCD,RETEST,REORRES,REORRESU,RESTRESC,RESTRESN,RESTRESU,RESTAT,REDTC,REENDTC,REDY,REENDY,RETPTREF,RESTINT,REENINT
ABC,RE,AAA-111-3,1,RESPRATE,Respiratory Rate,115.25,breaths/min ,115.25,115.25,breaths/min ,,1999-06-19T08:45,,1,,,,
ABC,RE,AAA-111-3,2,RESPRATE,Respiratory Rate,118.30,breaths/min ,118.30,118.30,breaths/min ,,1999-06-19T08:46,,1,,,,
ABC,RE,AAA-111-4,1,RESPRATE,Respiratory Rate,120.1,breaths/min ,120.1,120.1,breaths/min ,,2006-09-15,,1,,Day 1 dose,-PT60M,PT0M
ABC,RE,AAA-111-4,2,RESPRATE,Respiratory Rate,121.1,breaths/min ,121.1,121.1,breaths/min ,,2006-09-15,,1,,Day 1 dose,PT60M,PT120M
ABC,RE,AAA-111-5,1,RESPRATE,Respiratory Rate,118.5,breaths/min ,118.5,118.5,breaths/min ,,2006-09-15,,1,,Day 1 dose,-PT60M,PT0M
ABC,RE,AAA-111-5,2,RESPRATE,Respiratory Rate,115.3,breaths/min ,115.3,115.3,breaths/min ,,2006-09-16,,1,,Day 2 dose,-PT60M,PT0M
