STUDYID,DOMAIN,USUBJID,DSSEQ,DSTERM,DSDECOD,DSCAT,DSSTDTC
CDISCCORE01,DS,015246-076-0003-00003,1,Exsanguinated ,TERMINAL SACRIFICE ,PROTOCOL MILESTONE,2018-03-06
CDISCCORE01,DS,015246-300-0004-00002,1,Exsanguinated ,TERMINAL SACRIFICE ,PROTOCOL MILESTONE,2018-04-17
CDISCCORE01,DS,015246-222-0002-00004,1,Exsanguinated ,TERMINAL SACRIFICE ,PROTOCOL MILESTONE,2018-04-17
