STUDYID,DOMAIN,USUBJID,SPDEVID,EXSEQ,EXTRT,EXPRESP,EXOCCUR,EXDOSE,EXDOSU,EXDOSFRM,EXDOSFRQ,EXROUTE,EXLOT,EPOCH,EXSTDTC,EXENDTC,EXSTDY,EXENDY
CDISCPILOT01,EX,CDISC005,DEV0005,1,ZANOMALINE,Y,Y,5,mL,INJECTION,QD,SUBCUTANEOUS,SDS580-359,TREATMENT,2013-02-04,2013-02-04,1,1
CDISCPILOT01,EX,CDISC005,DEV0005,2,ZANOMALINE,Y,Y,5,mL,INJECTION,QD,SUBCUTANEOUS,SDS580-359,TREATMENT,2013-02-05,2013-02-05,2,2
CDISCPILOT01,EX,CDISC005,DEV0005,3,ZANOMALINE,Y,Y,5,mL,INJECTION,QD,SUBCUTANEOUS,SDS580-359,TREATMENT,2013-02-06,2013-02-06,3,3
CDISCPILOT01,EX,CDISC005,DEV0005,74,ZANOMALINE,Y,Y,5,mL,INJECTION,QD,SUBCUTANEOUS,SDS580-983,TREATMENT,2013-04-18,2013-04-18,74,74
CDISCPILOT01,EX,CDISC005,DEV0005,75,ZANOMALINE,Y,Y,5,mL,INJECTION,QD,SUBCUTANEOUS,SDS580-983,TREATMENT,2013-04-19,2013-04-19,75,75
CDISCPILOT01,EX,CDISC005,DEV0005,76,ZANOMALINE,Y,Y,5,mL,INJECTION,QD,SUBCUTANEOUS,SDS580-983,TREATMENT,2013-04-20,2013-04-20,76,76
CDISCPILOT01,EX,CDISC005,DEV0005,89,ZANOMALINE,Y,Y,5,mL,INJECTION,QD,SUBCUTANEOUS,SDS580-983,TREATMENT,2013-05-03,2013-05-03,89,89
CDISCPILOT01,EX,CDISC005,DEV0005,90,ZANOMALINE,Y,Y,5,mL,INJECTION,QD,SUBCUTANEOUS,SDS580-983,TREATMENT,2013-05-04,2013-05-04,90,90
CDISCPILOT01,EX,CDISC005,DEV0005,91,ZANOMALINE,Y,Y,5,mL,INJECTION,QD,SUBCUTANEOUS,SDS580-983,TREATMENT,2013-05-05,2013-05-05,91,91
CDISCPILOT01,EX,CDISC005,DEV0005,92,ZANOMALINE,Y,Y,5,mL,INJECTION,QD,SUBCUTANEOUS,SDS580-983,TREATMENT,2013-05-06,2013-05-06,92,92
CDISCPILOT01,EX,CDISC005,DEV0005,93,ZANOMALINE,Y,Y,5,mL,INJECTION,QD,SUBCUTANEOUS,SDS580-983,TREATMENT,2013-05-07,2013-05-07,93,93
CDISCPILOT01,EX,CDISC005,DEV0005,94,ZANOMALINE,,Y,5,mL,INJECTION,QD,SUBCUTANEOUS,SDS580-983,TREATMENT,2013-05-08,2013-05-08,94,94
CDISCPILOT01,EX,CDISC005,DEV0005,95,ZANOMALINE,N,Y,5,mL,INJECTION,QD,SUBCUTANEOUS,SDS580-983,TREATMENT,2013-05-09,2013-05-09,95,95
CDISCPILOT01,EX,CDISC005,DEV0005,96,ZANOMALINE,,Y,5,mL,INJECTION,QD,SUBCUTANEOUS,SDS580-983,TREATMENT,2013-05-10,2013-05-10,96,96
CDISCPILOT01,EX,CDISC005,DEV0005,97,ZANOMALINE,Y,Y,5,mL,INJECTION,QD,SUBCUTANEOUS,SDS580-983,TREATMENT,2013-05-11,2013-05-11,97,97
CDISCPILOT01,EX,CDISC005,DEV0005,106,ZANOMALINE,,Y,5,mL,INJECTION,QD,SUBCUTANEOUS,SDS580-983,TREATMENT,2013-05-20,2013-05-20,106,106
CDISCPILOT01,EX,CDISC005,DEV0005,107,ZANOMALINE,,Y,5,mL,INJECTION,QD,SUBCUTANEOUS,SDS580-983,TREATMENT,2013-05-21,2013-05-21,107,107
CDISCPILOT01,EX,CDISC005,DEV0005,112,ZANOMALINE,,Y,5,mL,INJECTION,QD,SUBCUTANEOUS,SDS580-983,TREATMENT,2013-05-26,2013-05-26,112,112
CDISCPILOT01,EX,CDISC005,DEV0005,113,ZANOMALINE,N,Y,5,mL,INJECTION,QD,SUBCUTANEOUS,SDS580-983,TREATMENT,2013-05-27,2013-05-27,113,113
CDISCPILOT01,EX,CDISC005,DEV0005,114,ZANOMALINE,,Y,5,mL,INJECTION,QD,SUBCUTANEOUS,SDS580-983,TREATMENT,2013-05-28,2013-05-28,114,114
CDISCPILOT01,EX,CDISC005,DEV0005,115,ZANOMALINE,Y,Y,5,mL,INJECTION,QD,SUBCUTANEOUS,SDS580-983,TREATMENT,2013-05-29,2013-05-29,115,115
CDISCPILOT01,EX,CDISC005,DEV0005,116,ZANOMALINE,Y,Y,5,mL,INJECTION,QD,SUBCUTANEOUS,SDS580-983,TREATMENT,2013-05-30,2013-05-30,116,116
CDISCPILOT01,EX,CDISC005,DEV0005,117,ZANOMALINE,Y,Y,5,mL,INJECTION,QD,SUBCUTANEOUS,SDS580-983,TREATMENT,2013-05-31,2013-05-31,117,117
CDISCPILOT01,EX,CDISC005,DEV0005,118,ZANOMALINE,Y,Y,5,mL,INJECTION,QD,SUBCUTANEOUS,SDS580-983,TREATMENT,2013-06-01,2013-06-01,118,118
CDISCPILOT01,EX,CDISC005,DEV0005,119,ZANOMALINE,Y,Y,5,mL,INJECTION,QD,SUBCUTANEOUS,SDS580-983,TREATMENT,2013-06-02,2013-06-02,119,119
CDISCPILOT01,EX,CDISC005,DEV0005,120,ZANOMALINE,Y,Y,5,mL,INJECTION,QD,SUBCUTANEOUS,SDS580-983,TREATMENT,2013-06-03,2013-06-03,120,120
CDISCPILOT01,EX,CDISC005,DEV0005,121,ZANOMALINE,Y,Y,5,mL,INJECTION,QD,SUBCUTANEOUS,SDS580-983,TREATMENT,2013-06-04,2013-06-04,121,121
