STUDYID,DOMAIN,USUBJID,LBSEQ,LBTESTCD,LBTEST,LBCAT,LBORRES,LBORRESU,LBORNRLO,LBORNRHI,LBSTRESC,LBSTRESN,LBSTRESU,LBSTNRLO,LBSTNRHI,LBNRIND,LBSTAT,LBREASND,LBLOBXFL,VISITNUM,VISIT,EPOCH,LBDTC,LBDY,LBTOX,LBTOXGR,LBNOMDY
CDISCPILOT01,LB,CDISC001,1,ALB,Albumin,CHEMISTRY,3.9,g/dL,3.5,4.6,39,39,g/L,35,46,NORMAL,,,Y,1,SCREENING 1,SCREENING,2012-11-23T11:20,-7,,3,1
CDISCPILOT01,LB,CDISC001,2,ALP,Alkaline Phosphatase,CHEMISTRY,93,U/L,35,115,93,93,U/L,35,115,NORMAL,,,Y,1,SCREENING 1,SCREENING,2012-11-23T11:20,-7,,2,1
CDISCPILOT01,LB,CDISC002,2,ALP,Alkaline Phosphatase,CHEMISTRY,93,U/L,35,115,93,93,U/L,35,115,NORMAL,,,Y,1,SCREENING 1,SCREENING,2012-11-23T11:20,-7,,Grade II,
CDISCPILOT01,LB,CDISC002,2,ALP,Alkaline Phosphatase,CHEMISTRY,,,,,,,,,,,NOT DONE,sample broken,,1,SCREENING 1,SCREENING,2012-11-23T17:21,-7,,,
