STUDYID,DOMAIN,USUBJID,DDSEQ,DDTESTCD,DDTEST,DDORRES,DDSTRESC
CDISCPILOT01,DD,CDISC-TEST-001,1,DEATHD,Death Diagnosis,cancer,CANCER
CDISCPILOT01,DD,CDISC-TEST-001,2,DEATHD,Death Diagnosis,unknown,UNKNOWN
CDISCPILOT01,DD,CDISC-TEST-002,1,DEATHD,Death Diagnosis,cancer,CANCER
CDISCPILOT01,DD,CDISC-TEST-003,1,DEATHD,Death Diagnosis,flu,FLU
CDISCPILOT01,DD,CDISC-TEST-004,1,DEATHD,Death Diagnosis,cancer,CANCER
