STUDYID,DOMAIN,USUBJID,DSSEQ,DSTERM,DSDECOD,DSCAT,DSSTDTC,DSUSCHFL
CDISCPILOT01,DS,CDISC-TEST-001,1,accidental death,ACCIDENTAL DEATH ,PROTOCOL MILESTONE,2018-03-06,Y
CDISCPILOT01,DS,CDISC-TEST-002,1,accidental death,ACCIDENTAL DEATH ,PROTOCOL MILESTONE,2018-04-17,Y
CDISCPILOT01,DS,CDISC-TEST-003,1,accidental death,ACCIDENTAL DEATH ,PROTOCOL MILESTONE,2018-04-17,Y
CDISCPILOT01,DS,CDISC-TEST-004,1,accidental death,ACCIDENTAL DEATH ,PROTOCOL MILESTONE,2018-04-17,Y
