STUDYID,DOMAIN,USUBJID,SPDEVID,ECSEQ,ECTRT,ECPRESP,ECOCCUR,ECDOSE,ECDOSU,ECDOSFRM,ECDOSFRQ,ECROUTE,ECLOT,ECPSTRG,ECPSTRGU,EPOCH,ECSTDTC,ECENDTC,ECSTDY,ECENDY
CDISCPILOT01,EC,CDISC002,DEV0002,1,ZANOMALINE,Y,Y,5,mL,INJECTION,QD,SUBCUTANEOUS,SDS580-359,10.8,g/L,TREATMENT,2012-11-15,2012-11-15,1,0
CDISCPILOT01,EC,CDISC002,DEV0002,2,ZANOMALINE,Y,Y,5,mL,INJECTION,QD,SUBCUTANEOUS,SDS580-359,10.8,g/L,TREATMENT,2012-11-16,2012-11-16,2,2
CDISCPILOT01,EC,CDISC002,DEV0002,3,ZANOMALINE,Y,Y,5,mL,INJECTION,QD,SUBCUTANEOUS,SDS580-359,10.8,g/L,TREATMENT,2012-11-17,2012-11-17,3,3
