STUDYID,DOMAIN,USUBJID,SUBJID,RFSTDTC,RFENDTC,ARMCD,ARM
CDISCPILOT01,DM,CDISC003,1302,2013-08-29,2013-10-29,ZAN_HIGH,Zanomaline High Dose (81 mg)
CDISCPILOT01,DM,CDISC004,1345,2013-10-08,2014-03-18,PLACEBO,Placebo
CDISCPILOT01,DM,CDISC002,1211,,,,
