STUDYID,DOMAIN,USUBJID,AESEQ,AELNKID,AETERM,AELLT,AELLTCD,AEDECOD,AEPTCD,AEHLT,AEHLTCD,AEHLGT,AEHLGTCD,AEBODSYS,AEBDSYCD,AESOC,AESOCCD,AESEV,AESER,AEACN,AEREL,AEOUT,AESCAN,AESCONG,AESDISAB,AESDTH,AESHOSP,AESLIFE,AESOD,EPOCH,AESTDTC,AEENDTC,AESTDY,AEENDY,AEENRTPT,AEENTPT
CDISCPILOT01,AE,CDISC001,1,1,INJECTION SITE REACTION,,,INJECTION SITE REACTION,INJECTION SITE REACTION,,,,,Apple,A,,,MODERATE,N,DRUG WITHDRAWN,RELATED,NOT RECOVERED/NOT RESOLVED,N,N,N,N,N,N,N,TREATMENT,2012-12-02,,3,,ONGOING,2013-05-20
CDISCPILOT01,AE,CDISC001,2,2,FATIGUE,,,FATIGUE,FATIGUE,,,,,Apple,A,,,MODERATE,N,DOSE NOT CHANGED,UNLIKELY RELATED,NOT RECOVERED/NOT RESOLVED,N,N,N,N,N,N,N,TREATMENT,2013-01-14,,46,,ONGOING,2013-05-20
CDISCPILOT01,AE,CDISC002,1,1,INJECTION SITE REACTION,,,INJECTION SITE REACTION,INJECTION SITE REACTION,,,,,Apple,A,,,MILD,N,DOSE NOT CHANGED,POSSIBLY RELATED,NOT RECOVERED/NOT RESOLVED,N,N,N,N,N,N,N,TREATMENT,2012-11-16,,2,,ONGOING,2013-01-14
CDISCPILOT01,AE,CDISC003,1,1,HYPERHIDROSIS,,,HYPERHIDROSIS,HYPERHIDROSIS,,,,,Blue,B,,,MILD,N,DOSE NOT CHANGED,POSSIBLY RELATED,NOT RECOVERED/NOT RESOLVED,N,N,N,N,N,N,N,TREATMENT,2013-08-30,,2,,ONGOING,2013-02-13
CDISCPILOT01,AE,CDISC003,2,2,STOMACH DISCOMFORT,,,STOMACH DISCOMFORT,STOMACH DISCOMFORT,,,,,Blue,B,,,MILD,N,DOSE NOT CHANGED,POSSIBLY RELATED,NOT RECOVERED/NOT RESOLVED,N,N,N,N,N,N,N,TREATMENT,2013-08-30,,2,,ONGOING,2013-02-13
CDISCPILOT01,AE,CDISC003,3,3,PAIN,,,PAIN,PAIN,,,,,Blue,B,,,MILD,N,DOSE NOT CHANGED,POSSIBLY RELATED,NOT RECOVERED/NOT RESOLVED,N,N,N,N,N,N,N,TREATMENT,2013-08-31,,3,,ONGOING,2013-02-13
CDISCPILOT01,AE,CDISC003,4,4,NASAL CONGESTION,,,NASAL CONGESTION,NASAL CONGESTION,,,,,Blue,B,,,MILD,N,DOSE NOT CHANGED,NOT RELATED,NOT RECOVERED/NOT RESOLVED,N,N,N,N,N,N,N,TREATMENT,2013-09-01,,4,,ONGOING,2013-02-13
CDISCPILOT01,AE,CDISC003,5,5,MALAISE,,,MALAISE,MALAISE,,,,,Blue,B,,,MODERATE,N,DOSE NOT CHANGED,UNLIKELY RELATED,NOT RECOVERED/NOT RESOLVED,N,N,N,N,N,N,N,TREATMENT,2013-09-02,,5,,ONGOING,2013-02-13
CDISCPILOT01,AE,CDISC003,6,6,MYALGIA,,,MYALGIA,MYALGIA,,,,,Blue,B,,,MILD,N,DOSE NOT CHANGED,POSSIBLY RELATED,NOT RECOVERED/NOT RESOLVED,N,N,N,N,N,N,N,TREATMENT,2013-09-02,,5,,ONGOING,2013-02-13
CDISCPILOT01,AE,CDISC007,1,1,INJECTION SITE REACTION,,,INJECTION SITE REACTION,INJECTION SITE REACTION,,,,,Carrot,C,,,MODERATE,N,DRUG WITHDRAWN,POSSIBLY RELATED,NOT RECOVERED/NOT RESOLVED,N,N,N,N,N,N,N,TREATMENT,2013-01-19,,15,,ONGOING,2013-06-20
CDISCPILOT01,AE,CDISC007,2,5,SALIVARY HYPERSECRETION,,,SALIVARY HYPERSECRETION,SALIVARY HYPERSECRETION,,,,,Carrot,C,,,MILD,N,DOSE NOT CHANGED,POSSIBLY RELATED,NOT RECOVERED/NOT RESOLVED,N,N,N,N,N,N,N,TREATMENT,2013-01-19,,15,,ONGOING,2013-06-20
CDISCPILOT01,AE,CDISC007,3,6,PARAESTHESIA,,,PARAESTHESIA,PARAESTHESIA,,,,,Carrot,C,,,MILD,N,DOSE NOT CHANGED,NOT RELATED,RECOVERED/RESOLVED,N,N,N,N,N,N,N,TREATMENT,2013-02-08,2013-02-08,35,35,,
CDISCPILOT01,AE,CDISC008,1,1,COMPLETED SUICIDE,,,COMPLETED SUICIDE,COMPLETED SUICIDE,,,,,Carrot,C,,,SEVERE,Y,DRUG WITHDRAWN,NOT RELATED,FATAL,N,N,N,Y,N,N,N,TREATMENT,2014-10-31,2014-10-31,174,174,,
CDISCPILOT01,AE,CDISC009,1,1,HEART RATE IRREGULAR,,,HEART RATE IRREGULAR,HEART RATE IRREGULAR,,,,,Carrot,C,,,MILD,N,DOSE NOT CHANGED,POSSIBLY RELATED,RECOVERED/RESOLVED,N,N,N,N,N,N,N,TREATMENT,2013-01-19,2013-01-19,90,90,,
