{
    "rule": {
        "Authorities": [
            {
                "Organization": "CDISC",
                "Standards": [
                    {
                        "Name": "SDTMIG",
                        "References": [
                            {
                                "Citations": [
                                    {
                                        "Document": "Model v2.0",
                                        "Section": "Identifiers",
                                        "Cited_Guidance": "STUDYID, DOMAIN, and --SEQ are required in all domains based on one of the 3 general observation classes. Each general class domain must also include at least one of the following subject identifiers USUBJID, SPDEVID, or POOLID."
                                    },
                                    {
                                        "Document": "Model v2.0",
                                        "Section": "Associated Persons Data",
                                        "Cited_Guidance": "The Associated Persons Identifier (APID) will be required in all AP datasets, and will identify records as AP data.'"
                                    }
                                ],
                                "Origin": "SDTM and SDTMIG Conformance Rules",
                                "Version": "2.0",
                                "Rule_Identifier": {
                                    "Id": "CG0554",
                                    "Version": "1"
                                }
                            }
                        ],
                        "Version": "3.4"
                    },
                    {
                        "Name": "SDTMIG",
                        "References": [
                            {
                                "Citations": [
                                    {
                                        "Document": "Model v1.7",
                                        "Section": "2.2.4",
                                        "Cited_Guidance": "STUDYID, DOMAIN, and --SEQ are required in all domains based on one of the 3 general observation classes. Each general class domain must also include at least one of the following subject identifiers: USUBJID, APID, SPDEVID, or POOLID."
                                    }
                                ],
                                "Origin": "SDTM and SDTMIG Conformance Rules",
                                "Version": "2.0",
                                "Rule_Identifier": {
                                    "Id": "CG0554",
                                    "Version": "1"
                                }
                            }
                        ],
                        "Version": "3.3"
                    },
                    {
                        "Name": "TIG",
                        "References": [
                            {
                                "Citations": [
                                    {
                                        "Document": "SDTM v2.1",
                                        "Section": "Section 3.1.4 Identifiers For All Classes",
                                        "Cited_Guidance": "STUDYID, DOMAIN, and --SEQ are required in all domains based on one of the 3 general observation classes. Each general class domain must also include at least one of the following subject identifiers - SUBJID, SPDEVID, or POOLID."
                                    },
                                    {
                                        "Document": "SDTM v2.1",
                                        "Section": "Section 4.0  Associated Persons Data",
                                        "Cited_Guidance": "The Associated Persons Identifier (APID) will be required in all AP datasets, and will identify records as AP data."
                                    }
                                ],
                                "Origin": "TIG Conformance Rules",
                                "Version": "1.0",
                                "Rule_Identifier": {
                                    "Id": "TIG0642",
                                    "Version": "1"
                                }
                            }
                        ],
                        "Substandard": "SDTM",
                        "Version": "1.0"
                    }
                ]
            }
        ],
        "Check": {
            "any": [
                {
                    "all": [
                        {
                            "name": "DOMAIN",
                            "operator": "prefix_matches_regex",
                            "prefix": 2,
                            "value": "(AP|ap)"
                        },
                        {
                            "name": "APID",
                            "operator": "not_exists"
                        }
                    ]
                },
                {
                    "all": [
                        {
                            "name": "DOMAIN",
                            "operator": "not_prefix_matches_regex",
                            "prefix": 2,
                            "value": "(AP|ap)"
                        },
                        {
                            "name": "STUDYID",
                            "operator": "exists"
                        },
                        {
                            "name": "--SEQ",
                            "operator": "exists"
                        },
                        {
                            "name": "USUBJID",
                            "operator": "not_exists"
                        },
                        {
                            "name": "SPDEVID",
                            "operator": "not_exists"
                        },
                        {
                            "name": "POOLID",
                            "operator": "not_exists"
                        },
                        {
                            "name": "SPTOBID",
                            "operator": "not_exists"
                        },
                        {
                            "name": "STOCONID",
                            "operator": "not_exists"
                        }
                    ]
                }
            ]
        },
        "Core": {
            "Id": "CORE-000107",
            "Status": "Published",
            "Version": "1"
        },
        "Description": "APID is required in all Associated Persons Data. In addition to STUDYID, DOMAIN, and --SEQ being required for all domains based on one of the 3 general observation classes, one of USUBJID, APID, SPDEVID, or POOLID must also be present.",
        "Executability": "Fully Executable",
        "Outcome": {
            "Message": "An appropriate identifier is not present; USUBJID, APID, SPDEVID, SPTOBID, POOLID, SPTOBID, STOCONID should be present."
        },
        "Scope": {
            "Classes": {
                "Include": [
                    "ALL"
                ]
            },
            "Domains": {
                "Include": [
                    "ALL"
                ]
            },
            "Use_Case": "INDH, PROD"
        },
        "Sensitivity": "Dataset",
        "Rule_Type": "Record Data"
    },
    "datasets": [
        {
            "filename": "ae.xpt",
            "label": "Adverse Events",
            "domain": "AE",
            "variables": [
                {
                    "name": "STUDYID",
                    "label": "Study Identifier",
                    "type": "Char",
                    "length": 50
                },
                {
                    "name": "DOMAIN",
                    "label": "Domain Abbreviation",
                    "type": "Char",
                    "length": 50
                },
                {
                    "name": "POOLID",
                    "label": "Pool Identifier",
                    "type": "Char",
                    "length": 20
                },
                {
                    "name": "AESEQ",
                    "label": "Sequence Number",
                    "type": "Num",
                    "length": 8
                },
                {
                    "name": "AETERM",
                    "label": "Reported Term for the Adverse Event",
                    "type": "Char",
                    "length": 50
                },
                {
                    "name": "AEMODIFY",
                    "label": "Modified Reported Term",
                    "type": "Char",
                    "length": 50
                },
                {
                    "name": "AEDECOD",
                    "label": "Dictionary-Derived Term",
                    "type": "Char",
                    "length": 50
                },
                {
                    "name": "AEBODSYS",
                    "label": "Body System or Organ Class",
                    "type": "Char",
                    "length": 50
                },
                {
                    "name": "AESEV",
                    "label": "Severity/Intensity",
                    "type": "Char",
                    "length": 50
                },
                {
                    "name": "AESER",
                    "label": "Serious Event",
                    "type": "Char",
                    "length": 50
                },
                {
                    "name": "AEACN",
                    "label": "Action Taken with Study Treatment",
                    "type": "Char",
                    "length": 50
                },
                {
                    "name": "AEREL",
                    "label": "Causality",
                    "type": "Char",
                    "length": 50
                },
                {
                    "name": "AEOUT",
                    "label": "Outcome of Adverse Event",
                    "type": "Char",
                    "length": 50
                },
                {
                    "name": "AESCONG",
                    "label": "Congenital Anomaly or Birth Defect",
                    "type": "Char",
                    "length": 50
                },
                {
                    "name": "AESDISAB",
                    "label": "Persist or Signif Disability/Incapacity",
                    "type": "Char",
                    "length": 50
                },
                {
                    "name": "AESDTH",
                    "label": "Results in Death",
                    "type": "Char",
                    "length": 50
                },
                {
                    "name": "AESHOSP",
                    "label": "Requires or Prolongs Hospitalization",
                    "type": "Char",
                    "length": 50
                },
                {
                    "name": "AESLIFE",
                    "label": "Is Life Threatening",
                    "type": "Char",
                    "length": 50
                },
                {
                    "name": "EPOCH",
                    "label": "Epoch",
                    "type": "Char",
                    "length": 50
                },
                {
                    "name": "AESTDTC",
                    "label": "Start Date/Time of Adverse Event",
                    "type": "Char",
                    "length": 50
                },
                {
                    "name": "AEENDTC",
                    "label": "End Date/Time of Adverse Event",
                    "type": "Char",
                    "length": 50
                },
                {
                    "name": "AESTDY",
                    "label": "Study Day of Start of Adverse Event",
                    "type": "Num",
                    "length": 8
                },
                {
                    "name": "AEENDY",
                    "label": "Study Day of End of Adverse Event",
                    "type": "Num",
                    "length": 8
                },
                {
                    "name": "AEENRF",
                    "label": "End Relative to Reference Period",
                    "type": "Char",
                    "length": 50
                }
            ],
            "records": {
                "STUDYID": [
                    "CDISCPILOT01",
                    "CDISCPILOT01"
                ],
                "DOMAIN": [
                    "AE",
                    "AE"
                ],
                "POOLID": [
                    "CDISC001",
                    "CDISC001"
                ],
                "AESEQ": [
                    1,
                    2
                ],
                "AETERM": [
                    "POUNDING HEADACHE",
                    "POUNDING HEADACHE"
                ],
                "AEMODIFY": [
                    "HEADACHE",
                    "HEADACHE"
                ],
                "AEDECOD": [
                    "Headache",
                    "Headache"
                ],
                "AEBODSYS": [
                    "Nervous system disorders",
                    "Nervous system disorders"
                ],
                "AESEV": [
                    "SEVERE",
                    "SEVERE"
                ],
                "AESER": [
                    "N",
                    "N"
                ],
                "AEACN": [
                    "NOT APPLICABLE",
                    "NOT APPLICABLE"
                ],
                "AEREL": [
                    "DEFINITELY NOT RELATED",
                    "DEFINITELY NOT RELATED"
                ],
                "AEOUT": [
                    "RECOVERED/RESOLVED",
                    "RECOVERED/RESOLVED"
                ],
                "AESCONG": [
                    "",
                    ""
                ],
                "AESDISAB": [
                    "",
                    ""
                ],
                "AESDTH": [
                    "",
                    ""
                ],
                "AESHOSP": [
                    "CDISCPILOT01",
                    "CDISCPILOT01"
                ],
                "AESLIFE": [
                    "",
                    ""
                ],
                "EPOCH": [
                    "SCREENING",
                    "SCREENING"
                ],
                "AESTDTC": [
                    "2022-03-19",
                    "2022-03-20"
                ],
                "AEENDTC": [
                    "2022-03-19",
                    "2022-03-20"
                ],
                "AESTDY": [
                    -2,
                    0
                ],
                "AEENDY": [
                    -2,
                    0
                ],
                "AEENRF": [
                    "",
                    ""
                ]
            }
        },
        {
            "filename": "cm.xpt",
            "label": "Concomitant/Prior Medications",
            "domain": "CM",
            "variables": [
                {
                    "name": "STUDYID",
                    "label": "Study Identifier",
                    "type": "Char",
                    "length": 12
                },
                {
                    "name": "DOMAIN",
                    "label": "Domain Abbreviation",
                    "type": "Char",
                    "length": 2
                },
                {
                    "name": "USUBJID",
                    "label": "Unique Subject Identifier",
                    "type": "Char",
                    "length": 8
                },
                {
                    "name": "CMSEQ",
                    "label": "Sequence Number",
                    "type": "Num",
                    "length": 8
                },
                {
                    "name": "CMTRT",
                    "label": "Reported Name of Drug, Med, or Therapy",
                    "type": "Char",
                    "length": 200
                },
                {
                    "name": "CMINDC",
                    "label": "Indication",
                    "type": "Char",
                    "length": 200
                },
                {
                    "name": "CMDOSE",
                    "label": "Dose per Administration",
                    "type": "Num",
                    "length": 8
                },
                {
                    "name": "CMDOSU",
                    "label": "Dose Units",
                    "type": "Char",
                    "length": 6
                },
                {
                    "name": "CMDOSFRQ",
                    "label": "Dosing Frequency per Interval",
                    "type": "Char",
                    "length": 3
                },
                {
                    "name": "CMROUTE",
                    "label": "Route of Administration",
                    "type": "Char",
                    "length": 24
                },
                {
                    "name": "EPOCH",
                    "label": "Epoch",
                    "type": "Char",
                    "length": 9
                },
                {
                    "name": "CMSTDTC",
                    "label": "Start Date/Time of Medication",
                    "type": "Char",
                    "length": 10
                },
                {
                    "name": "CMENDTC",
                    "label": "End Date/Time of Medication",
                    "type": "Char",
                    "length": 10
                },
                {
                    "name": "CMSTDY",
                    "label": "Study Day of Start of Medication",
                    "type": "Num",
                    "length": 8
                },
                {
                    "name": "CMENDY",
                    "label": "Study Day of End of Medication",
                    "type": "Num",
                    "length": 8
                },
                {
                    "name": "CMSTRF",
                    "label": "Start Relative to Reference Period",
                    "type": "Char",
                    "length": 7
                },
                {
                    "name": "CMENRF",
                    "label": "End Relative to Reference Period",
                    "type": "Char",
                    "length": 5
                }
            ],
            "records": {
                "STUDYID": [
                    "CDISCPILOT01",
                    "CDISCPILOT01",
                    "CDISCPILOT01",
                    "CDISCPILOT01",
                    "CDISCPILOT01",
                    "CDISCPILOT01",
                    "CDISCPILOT01",
                    "CDISCPILOT01",
                    "CDISCPILOT01",
                    "CDISCPILOT01"
                ],
                "DOMAIN": [
                    "CM",
                    "CM",
                    "CM",
                    "CM",
                    "CM",
                    "CM",
                    "CM",
                    "CM",
                    "CM",
                    "CM"
                ],
                "USUBJID": [
                    "CDISC001",
                    "CDISC002",
                    "CDISC003",
                    "CDISC004",
                    "CDISC005",
                    "CDISC006",
                    "CDISC007",
                    "CDISC008",
                    "CDISC009",
                    "CDISC010"
                ],
                "CMSEQ": [
                    1,
                    2,
                    1,
                    2,
                    3,
                    4,
                    5,
                    6,
                    1,
                    1
                ],
                "CMTRT": [
                    "VITAMIN C",
                    "VITAMIN E",
                    "METAMUCIL",
                    "ADVIL",
                    "DOCUSATE SODIUM",
                    "BENADRYL",
                    "PREDNISONE",
                    "TEMOVATE",
                    "MOTRIN",
                    "PRINIVIL"
                ],
                "CMINDC": [
                    "PROPHYLAXIS OR NON-THERAPEUTIC USE",
                    "PROPHYLAXIS OR NON-THERAPEUTIC USE",
                    "PROPHYLAXIS OR NON-THERAPEUTIC USE",
                    "PROPHYLAXIS OR NON-THERAPEUTIC USE",
                    "PROPHYLAXIS OR NON-THERAPEUTIC USE",
                    "PROPHYLAXIS OR NON-THERAPEUTIC USE",
                    "PROPHYLAXIS OR NON-THERAPEUTIC USE",
                    "PROPHYLAXIS OR NON-THERAPEUTIC USE",
                    "PROPHYLAXIS OR NON-THERAPEUTIC USE",
                    "PROPHYLAXIS OR NON-THERAPEUTIC USE"
                ],
                "CMDOSE": [
                    500,
                    400,
                    3,
                    200,
                    100,
                    75,
                    20,
                    1,
                    400,
                    10
                ],
                "CMDOSU": [
                    "mg",
                    "mg",
                    "mg",
                    "mg",
                    "mg",
                    "mg",
                    "mg",
                    "TABLET",
                    "mg",
                    "mg"
                ],
                "CMDOSFRQ": [
                    "",
                    "",
                    "",
                    "",
                    "",
                    "",
                    "",
                    "",
                    "",
                    ""
                ],
                "CMROUTE": [
                    "ORAL",
                    "ORAL",
                    "ORAL",
                    "ORAL",
                    "ORAL",
                    "ORAL",
                    "ORAL",
                    "TOPICAL",
                    "ORAL",
                    "ORAL"
                ],
                "EPOCH": [
                    "SCREENING",
                    "SCREENING",
                    "SCREENING",
                    "SCREENING",
                    "SCREENING",
                    "SCREENING",
                    "SCREENING",
                    "SCREENING",
                    "SCREENING",
                    "SCREENING"
                ],
                "CMSTDTC": [
                    "1983",
                    "1983",
                    "2009",
                    "2011",
                    "2012-11",
                    "2013-02-18",
                    "2013-02-18",
                    "2014-05-13",
                    "1998-10",
                    "2011-07-15"
                ],
                "CMENDTC": [
                    "",
                    "",
                    "",
                    "2013",
                    "2013-01-05",
                    "2013-05-10",
                    "2013-05-10",
                    "2014-05-20",
                    "2013-06-05",
                    "2013-06-05"
                ],
                "CMSTDY": [
                    null,
                    null,
                    null,
                    null,
                    null,
                    45,
                    45,
                    3,
                    null,
                    -799
                ],
                "CMENDY": [
                    null,
                    null,
                    null,
                    null,
                    1,
                    126,
                    null,
                    11,
                    181,
                    -107
                ],
                "CMSTRF": [
                    "",
                    "ONGOING",
                    "",
                    "ONGOING",
                    "",
                    "",
                    "BEFORE",
                    "BEFORE",
                    "",
                    ""
                ],
                "CMENRF": [
                    "AFTER",
                    "AFTER",
                    "",
                    "AFTER",
                    "",
                    "AFTER",
                    "",
                    "",
                    "",
                    ""
                ]
            }
        },
        {
            "filename": "em.xpt",
            "label": "Tobacco Product Events and Malfunctions",
            "domain": "EM",
            "variables": [
                {
                    "name": "STUDYID",
                    "label": "Study Identifier",
                    "type": "Char",
                    "length": 12
                },
                {
                    "name": "DOMAIN",
                    "label": "Domain Abbreviation",
                    "type": "Char",
                    "length": 2
                },
                {
                    "name": "USUBJID",
                    "label": "Unique Subject Identifier",
                    "type": "Char",
                    "length": 8
                },
                {
                    "name": "SPTOBID",
                    "label": "Applicant-Defined Tobacco Product ID",
                    "type": "Char",
                    "length": 40
                },
                {
                    "name": "EMSEQ",
                    "label": "Device Events Sequence Number",
                    "type": "Num",
                    "length": 8
                },
                {
                    "name": "EMTERM",
                    "label": "Reported Term for Device Event",
                    "type": "Char",
                    "length": 200
                },
                {
                    "name": "EMDECOD",
                    "label": "Device Events Dictionary-Derived Term",
                    "type": "Char",
                    "length": 200
                },
                {
                    "name": "EMACNDEV",
                    "label": "Action Taken with Device",
                    "type": "Char",
                    "length": 200
                },
                {
                    "name": "EMPATT",
                    "label": "Pattern of Device Event",
                    "type": "Char",
                    "length": 200
                },
                {
                    "name": "EMSTDTC",
                    "label": "Start Date/Time of Device Event",
                    "type": "Char",
                    "length": 200
                }
            ],
            "records": {
                "STUDYID": [
                    "TOB07",
                    "TOB07",
                    "TOB07"
                ],
                "DOMAIN": [
                    "EM",
                    "EM",
                    "EM"
                ],
                "USUBJID": [
                    "CDISC001",
                    "CDISC001",
                    "CDISC001"
                ],
                "SPTOBID": [
                    "VAPE-Z01",
                    "VAPE-Z01",
                    "VAPE-Z01"
                ],
                "EMSEQ": [
                    1,
                    1,
                    1
                ],
                "EMTERM": [
                    "Broken Heater",
                    "Won't charge",
                    "Battery Malfunction"
                ],
                "EMDECOD": [
                    "Mechanical Problem",
                    "Charging Problem",
                    "Battery Problem"
                ],
                "EMACNDEV": [
                    "DEVICE REPLACED",
                    "BATTERY REPLACED",
                    "BATTERY REPLACED"
                ],
                "EMPATT": [
                    "SINGLE",
                    "SINGLE",
                    "INTERMITTENT"
                ],
                "EMSTDTC": [
                    "2009-12-28",
                    "2009-12-29",
                    "2009-12-30"
                ]
            }
        },
        {
            "filename": "du.xpt",
            "label": "Device-in-Use",
            "domain": "DU",
            "variables": [
                {
                    "name": "STUDYID",
                    "label": "Study Identifier",
                    "type": "Char",
                    "length": 50
                },
                {
                    "name": "DOMAIN",
                    "label": "Domain Abbreviation",
                    "type": "Char",
                    "length": 50
                },
                {
                    "name": "SPDEVID",
                    "label": "Applicant Device Identifier",
                    "type": "Char",
                    "length": 8
                },
                {
                    "name": "DUSEQ",
                    "label": "Sequence Number",
                    "type": "Num",
                    "length": 50
                },
                {
                    "name": "DUTESTCD",
                    "label": "Device-In-Use Test Short Name",
                    "type": "Char",
                    "length": 50
                },
                {
                    "name": "DUTEST",
                    "label": "Device-In-Use Test Name",
                    "type": "Char",
                    "length": 50
                },
                {
                    "name": "DUORRES",
                    "label": "Result or Finding in Original Units",
                    "type": "Char",
                    "length": 50
                },
                {
                    "name": "DUORRESU",
                    "label": "Original Units",
                    "type": "Char",
                    "length": 50
                },
                {
                    "name": "DUSTRESC",
                    "label": "Result or Finding in Standard Format",
                    "type": "Char",
                    "length": 50
                },
                {
                    "name": "DUSTRESN",
                    "label": "Numeric Result/Finding in Standard Units",
                    "type": "Num",
                    "length": 50
                },
                {
                    "name": "DUSTRESU",
                    "label": "Standard Units",
                    "type": "Char",
                    "length": 50
                }
            ],
            "records": {
                "STUDYID": [
                    "TOB07",
                    "TOB07",
                    "TOB07",
                    "TOB07",
                    "TOB07",
                    "TOB07",
                    "TOB07",
                    "TOB07",
                    "TOB07",
                    "TOB07",
                    "TOB07",
                    "TOB07",
                    "TOB07",
                    "TOB07",
                    "TOB07",
                    "TOB07",
                    "TOB07",
                    "TOB07"
                ],
                "DOMAIN": [
                    "DU",
                    "DU",
                    "DU",
                    "DU",
                    "DU",
                    "DU",
                    "DU",
                    "DU",
                    "DU",
                    "DU",
                    "DU",
                    "DU",
                    "DU",
                    "DU",
                    "DU",
                    "DU",
                    "DU",
                    "DU"
                ],
                "SPDEVID": [
                    "PUFFMASTER2K",
                    "PUFFMASTER2K",
                    "PUFFMASTER2K",
                    "PUFFMASTER2K",
                    "PUFFMASTER2K",
                    "PUFFMASTER2K",
                    "PUFFMASTER2K",
                    "PUFFMASTER2K",
                    "PUFFMASTER2K",
                    "PUFFMASTER2K",
                    "PUFFMASTER2K",
                    "PUFFMASTER2K",
                    "PUFFMASTER2K",
                    "PUFFMASTER2K",
                    "PUFFMASTER2K",
                    "PUFFMASTER2K",
                    "PUFFMASTER2K",
                    "PUFFMASTER2K"
                ],
                "DUSEQ": [
                    1,
                    2,
                    3,
                    4,
                    5,
                    6,
                    7,
                    8,
                    9,
                    1,
                    2,
                    3,
                    4,
                    5,
                    6,
                    7,
                    8,
                    9
                ],
                "DUTESTCD": [
                    "PUFFPROF",
                    "PUFFDUR",
                    "PUFFINT",
                    "PUFFBLCK",
                    "PUFFNUM",
                    "PUFFVOL",
                    "PUFFRNG",
                    "PUFFPAUS",
                    "PUFFPINT",
                    "PUFFPROF",
                    "PUFFDUR",
                    "PUFFINT",
                    "PUFFBLCK",
                    "PUFFNUM",
                    "PUFFVOL",
                    "PUFFRNG",
                    "PUFFPAUS",
                    "PUFFPINT"
                ],
                "DUTEST": [
                    "Puff Profile",
                    "Puff Duration",
                    "Puff Interval",
                    "Puff Block",
                    "Number of Puffs",
                    "Puff Volume",
                    "Puff Range",
                    "Puff Pause",
                    "Puff Pause Interval",
                    "Puff Profile",
                    "Puff Duration",
                    "Puff Interval",
                    "Puff Block",
                    "Number of Puffs",
                    "Puff Volume",
                    "Puff Range",
                    "Puff Pause",
                    "Puff Pause Interval"
                ],
                "DUORRES": [
                    "SQUARE",
                    "1.25",
                    "3",
                    "25",
                    "200",
                    "10",
                    "100-200",
                    "60",
                    "10",
                    "SQUARE",
                    "2.25",
                    "3",
                    "30",
                    "100",
                    "20",
                    "50-150",
                    "30",
                    "10"
                ],
                "DUORRESU": [
                    "",
                    "sec",
                    "PUFF/min",
                    "%",
                    "PUFF",
                    "mL",
                    "",
                    "s",
                    "PUFF",
                    "",
                    "sec",
                    "PUFF/min",
                    "%",
                    "PUFF",
                    "mL",
                    "",
                    "s",
                    "PUFF"
                ],
                "DUSTRESC": [
                    "SQUARE",
                    "1.25",
                    "3",
                    "25",
                    "200",
                    "10",
                    "100-200",
                    "60",
                    "10",
                    "SQUARE",
                    "2.25",
                    "3",
                    "30",
                    "100",
                    "20",
                    "50-150",
                    "30",
                    "10"
                ],
                "DUSTRESN": [
                    null,
                    1.25,
                    3,
                    25,
                    200,
                    10,
                    null,
                    60,
                    10,
                    null,
                    2.25,
                    3,
                    30,
                    100,
                    20,
                    null,
                    30,
                    null
                ],
                "DUSTRESU": [
                    "",
                    "sec",
                    "PUFF/min",
                    "%",
                    "PUFF",
                    "mL",
                    "",
                    "s",
                    "PUFF",
                    "",
                    "sec",
                    "PUFF/min",
                    "%",
                    "PUFF",
                    "mL",
                    "",
                    "s",
                    ""
                ]
            }
        },
        {
            "filename": "to.xpt",
            "label": "Tobacco Product Identifiers and Descriptors",
            "domain": "TO",
            "variables": [
                {
                    "name": "STUDYID",
                    "label": "Study Identifier",
                    "type": "Char",
                    "length": 200
                },
                {
                    "name": "DOMAIN",
                    "label": "Domain Abbreviation",
                    "type": "Char",
                    "length": 200
                },
                {
                    "name": "SPTOBID",
                    "label": "Applicant-Defined Tobacco Product ID",
                    "type": "Char",
                    "length": 40
                },
                {
                    "name": "TOSEQ",
                    "label": "Sequence Number",
                    "type": "Num",
                    "length": 10
                },
                {
                    "name": "TOPARMCD",
                    "label": "Tobacco Product ID Element Short Name",
                    "type": "Char",
                    "length": 40
                },
                {
                    "name": "TOPARM",
                    "label": "Tobacco Product ID Element Name",
                    "type": "Char",
                    "length": 8
                },
                {
                    "name": "TOCAT",
                    "label": "Category of Tobacco Product ID Element",
                    "type": "Char",
                    "length": 40
                },
                {
                    "name": "TOSCAT",
                    "label": "Subcategory of Tobacco Prod ID Element",
                    "type": "Char",
                    "length": 50
                },
                {
                    "name": "TOVAL",
                    "label": "Tobacco Product ID Element Value",
                    "type": "Char",
                    "length": 50
                },
                {
                    "name": "TOVALU",
                    "label": "Tobacco Product ID Element Value Unit",
                    "type": "Char",
                    "length": 50
                }
            ],
            "records": {
                "STUDYID": [
                    "CDISCPILOT01",
                    "CDISCPILOT01",
                    "CDISCPILOT01",
                    "CDISCPILOT01",
                    "CDISCPILOT01",
                    "CDISCPILOT01",
                    "CDISCPILOT01",
                    "CDISCPILOT01",
                    "CDISCPILOT01",
                    "CDISCPILOT01"
                ],
                "DOMAIN": [
                    "TO",
                    "TO",
                    "TO",
                    "TO",
                    "TO",
                    "TO",
                    "TO",
                    "TO",
                    "TO",
                    "TO"
                ],
                "SPTOBID": [
                    "CIG01a",
                    "CIG01a",
                    "CIG01a",
                    "CIG01a",
                    "CIG01a",
                    "CIG01a",
                    "CIG01a",
                    "CIG01a",
                    "CIG01a",
                    "CIG01a"
                ],
                "TOSEQ": [
                    1,
                    2,
                    3,
                    4,
                    5,
                    6,
                    7,
                    8,
                    9,
                    10
                ],
                "TOPARMCD": [
                    "TBPRDCAT",
                    "TBPRSCAT",
                    "MANUF",
                    "TRADENAM",
                    "PACKTYP",
                    "PRDQUAN",
                    "LENGTH",
                    "CIRCUMF",
                    "VENTLTOT",
                    "CHARFLAV"
                ],
                "TOPARM": [
                    "Tobacco Product Category",
                    "Tobacco Product Subcategory",
                    "Manufacturer",
                    "Trade Name",
                    "Package Type",
                    "Product Quantity",
                    "Length",
                    "Circumference",
                    "Total Ventilation",
                    "Characterizing Flavor"
                ],
                "TOCAT": [
                    "NEW PRODUCT",
                    "NEW PRODUCT",
                    "NEW PRODUCT",
                    "NEW PRODUCT",
                    "NEW PRODUCT",
                    "NEW PRODUCT",
                    "NEW PRODUCT",
                    "NEW PRODUCT",
                    "NEW PRODUCT",
                    "NEW PRODUCT"
                ],
                "TOSCAT": [
                    "PRODUCT IDENTIFIER",
                    "PRODUCT IDENTIFIER",
                    "PRODUCT IDENTIFIER",
                    "PRODUCT IDENTIFIER",
                    "PRODUCT DESCRIPTOR",
                    "PRODUCT DESCRIPTOR",
                    "PRODUCT DESCRIPTOR",
                    "PRODUCT DESCRIPTOR",
                    "PRODUCT DESCRIPTOR",
                    "PRODUCT DESCRIPTOR"
                ],
                "TOVAL": [
                    "Cigarettes",
                    "Filtered",
                    "Joes Cigs USA",
                    "Treetop Menthol King Size",
                    "HARD PACK",
                    "20",
                    "86",
                    "26",
                    "10",
                    "MENTHOL"
                ],
                "TOVALU": [
                    "",
                    "",
                    "",
                    "",
                    "",
                    "CIGARETTE",
                    "mm",
                    "mm",
                    "%",
                    ""
                ]
            }
        },
        {
            "filename": "es.xpt",
            "label": "Environmental Storage Conditions",
            "domain": "ES",
            "variables": [
                {
                    "name": "STUDYID",
                    "label": "Study Identifier",
                    "type": "Char",
                    "length": 50
                },
                {
                    "name": "DOMAIN",
                    "label": "Domain Abbreviation",
                    "type": "Char",
                    "length": 50
                },
                {
                    "name": "STOCONID",
                    "label": "Applicant-defined Storage Conditions ID",
                    "type": "Char",
                    "length": 50
                },
                {
                    "name": "ESSEQ",
                    "label": "Sequence Number",
                    "type": "Num",
                    "length": 50
                },
                {
                    "name": "ESPARMCD",
                    "label": "Storage Conditions Element Short Name",
                    "type": "Char",
                    "length": 50
                },
                {
                    "name": "ESPARM",
                    "label": "Tobacco Product ID Element Name",
                    "type": "Char",
                    "length": 50
                },
                {
                    "name": "ESVAL",
                    "label": "Tobacco Product ID Element Value",
                    "type": "Char",
                    "length": 50
                },
                {
                    "name": "ESVALU",
                    "label": "Tobacco Product ID Element Value Unit",
                    "type": "Char",
                    "length": 50
                }
            ],
            "records": {
                "STUDYID": [
                    "TOB07",
                    "TOB07",
                    "TOB07",
                    "TOB07",
                    "TOB07",
                    "TOB07",
                    "TOB07",
                    "TOB07"
                ],
                "DOMAIN": [
                    "ES",
                    "ES",
                    "ES",
                    "ES",
                    "ES",
                    "ES",
                    "ES",
                    "ES"
                ],
                "STOCONID": [
                    "Condition 1",
                    "Condition 1",
                    "Condition 2",
                    "Condition 2",
                    "Condition 3",
                    "Condition 3",
                    "Condition 4",
                    "Condition 4"
                ],
                "ESSEQ": [
                    1,
                    2,
                    1,
                    2,
                    1,
                    2,
                    1,
                    2
                ],
                "ESPARMCD": [
                    "HUMID",
                    "TEMP",
                    "HUMID",
                    "TEMP",
                    "HUMID",
                    "TEMP",
                    "HUMID",
                    "TEMP"
                ],
                "ESPARM": [
                    "Humidity",
                    "Temperature",
                    "Humidity",
                    "Temperature",
                    "Humidity",
                    "Temperature",
                    "Humidity",
                    "Temperature"
                ],
                "ESVAL": [
                    "37",
                    "24",
                    "60",
                    "27",
                    "95",
                    "31",
                    "90",
                    "28"
                ],
                "ESVALU": [
                    "%",
                    "C",
                    "%",
                    "C",
                    "%",
                    "C",
                    "%",
                    "C"
                ]
            }
        },
        {
            "filename": "in.xpt",
            "label": "Non-Tobacco Ingredients",
            "domain": "IN",
            "variables": [
                {
                    "name": "STUDYID",
                    "label": "Study Identifier",
                    "type": "Char",
                    "length": 50
                },
                {
                    "name": "DOMAIN",
                    "label": "Domain Abbreviation",
                    "type": "Char",
                    "length": 50
                },
                {
                    "name": "IGDCMPID",
                    "label": "Ingredient or Component Identifier",
                    "type": "Char",
                    "length": 50
                },
                {
                    "name": "INMANUF",
                    "label": "Manufacturer Name",
                    "type": "Char",
                    "length": 50
                },
                {
                    "name": "INMANUIN",
                    "label": "Manufacturer Unique Identifying Item Num",
                    "type": "Char",
                    "length": 50
                },
                {
                    "name": "TPMF",
                    "label": "Tobacco Product Master File Number",
                    "type": "Char",
                    "length": 50
                },
                {
                    "name": "IUPACNAM",
                    "label": "Preferred IUPAC Name",
                    "type": "Char",
                    "length": 50
                },
                {
                    "name": "CASNO",
                    "label": "CAS Registry Number",
                    "type": "Char",
                    "length": 50
                },
                {
                    "name": "UNII",
                    "label": "Unique Ingredient Identifier",
                    "type": "Char",
                    "length": 50
                },
                {
                    "name": "INIGDPLX",
                    "label": "Ingredient Complexity",
                    "type": "Char",
                    "length": 50
                },
                {
                    "name": "INCIGIND",
                    "label": "Applicant-Customized Ingredient Indic",
                    "type": "Char",
                    "length": 50
                },
                {
                    "name": "INGRADE",
                    "label": "Ingredient Grade",
                    "type": "Char",
                    "length": 50
                },
                {
                    "name": "INPURITY",
                    "label": "Ingredient Purity",
                    "type": "Char",
                    "length": 50
                }
            ],
            "records": {
                "STUDYID": [
                    "TOB07",
                    "TOB07",
                    "TOB08",
                    "TOB07",
                    "TOB07",
                    "TOB07",
                    "TOB07",
                    "TOB07",
                    "TOB08"
                ],
                "DOMAIN": [
                    "IN",
                    "IN",
                    "IN",
                    "IN",
                    "IN",
                    "IN",
                    "IN",
                    "IN",
                    "IN"
                ],
                "IGDCMPID": [
                    "Cocoa Extract",
                    "Butyric Acid",
                    "Methylcellulose",
                    "Cellulose Filter A",
                    "Cellulose Acetate",
                    "Cellulose Acetate",
                    "1,3-Butanediol",
                    "FSC Paper B",
                    "FSC Paper A"
                ],
                "INMANUF": [
                    "Flavor House A",
                    "",
                    "",
                    "MFR A",
                    "",
                    "",
                    "",
                    "MFR B",
                    "MFR B"
                ],
                "INMANUIN": [
                    "FLVR1234",
                    "",
                    "",
                    "FIL789",
                    "",
                    "",
                    "",
                    "FSC123",
                    "FSC124"
                ],
                "TPMF": [
                    "MF5555555",
                    "",
                    "",
                    "",
                    "",
                    "",
                    "",
                    "MF5678910",
                    "MF5678911"
                ],
                "IUPACNAM": [
                    "",
                    "butanoic acid",
                    "butanoic acid",
                    "",
                    "cellulose acetate",
                    "cellulose acetate",
                    "1,3-diacetyloxypropan-2-yl acetate",
                    "",
                    ""
                ],
                "CASNO": [
                    "",
                    "107-92-6",
                    "107-92-7",
                    "-",
                    "9004-35-7",
                    "9004-35-8",
                    "102-76-1",
                    "",
                    ""
                ],
                "UNII": [
                    "",
                    "",
                    "",
                    "",
                    "",
                    "",
                    "",
                    "",
                    ""
                ],
                "INIGDPLX": [
                    "COMPLEX INGREDIENT",
                    "SINGLE INGREDIENT",
                    "SINGLE INGREDIENT",
                    "COMPLEX INGREDIENT",
                    "SINGLE INGREDIENT",
                    "SINGLE INGREDIENT",
                    "SINGLE INGREDIENT",
                    "COMPLEX INGREDIENT",
                    "COMPLEX INGREDIENT"
                ],
                "INCIGIND": [
                    "N",
                    "",
                    "",
                    "N",
                    "",
                    "",
                    "",
                    "N",
                    "N"
                ],
                "INGRADE": [
                    "FOOD",
                    "USP",
                    "USP",
                    "USP",
                    "",
                    "",
                    "USP",
                    "",
                    ""
                ],
                "INPURITY": [
                    "",
                    "≥99%",
                    "≥99%",
                    "",
                    "0.99",
                    "1.99",
                    "",
                    "",
                    ""
                ]
            }
        },
        {
            "filename": "dm.xpt",
            "label": "Demographics",
            "domain": "DM",
            "variables": [
                {
                    "name": "STUDYID",
                    "label": "Study Identifier",
                    "type": "Char",
                    "length": 50
                },
                {
                    "name": "DOMAIN",
                    "label": "Domain Abbreviation",
                    "type": "Char",
                    "length": 50
                },
                {
                    "name": "USUBJID",
                    "label": "Unique Subject Identifier",
                    "type": "Char",
                    "length": 50
                },
                {
                    "name": "SUBJID",
                    "label": "Subject Identifier for the Study",
                    "type": "Char",
                    "length": 50
                },
                {
                    "name": "RFSTDTC",
                    "label": "Subject Reference Start Date/Time",
                    "type": "Char",
                    "length": 50
                },
                {
                    "name": "RFENDTC",
                    "label": "Subject Reference End Date/Time",
                    "type": "Char",
                    "length": 50
                },
                {
                    "name": "RFXSTDTC",
                    "label": "Date/Time of First Study Treatment",
                    "type": "Char",
                    "length": 50
                },
                {
                    "name": "RFXENDTC",
                    "label": "Date/Time of Last Study Treatment",
                    "type": "Char",
                    "length": 50
                },
                {
                    "name": "RFICDTC",
                    "label": "Date/Time of Informed Consent",
                    "type": "Char",
                    "length": 50
                },
                {
                    "name": "RFPENDTC",
                    "label": "Date/Time of End of Participation",
                    "type": "Char",
                    "length": 50
                },
                {
                    "name": "DTHDTC",
                    "label": "Date/Time of Death",
                    "type": "Char",
                    "length": 50
                },
                {
                    "name": "DTHFL",
                    "label": "Subject Death Flag",
                    "type": "Char",
                    "length": 50
                },
                {
                    "name": "SITEID",
                    "label": "Study Site Identifier",
                    "type": "Char",
                    "length": 50
                },
                {
                    "name": "BRTHDTC",
                    "label": "Date/Time of Birth",
                    "type": "Char",
                    "length": 50
                },
                {
                    "name": "AGE",
                    "label": "Age",
                    "type": "Num",
                    "length": 8
                },
                {
                    "name": "AGEU",
                    "label": "Age Units",
                    "type": "Char",
                    "length": 50
                },
                {
                    "name": "SEX",
                    "label": "Sex",
                    "type": "Char",
                    "length": 50
                },
                {
                    "name": "RACE",
                    "label": "Race",
                    "type": "Char",
                    "length": 50
                },
                {
                    "name": "ETHNIC",
                    "label": "Ethnicity",
                    "type": "Char",
                    "length": 50
                },
                {
                    "name": "ARMCD",
                    "label": "Planned Arm Code",
                    "type": "Char",
                    "length": 50
                },
                {
                    "name": "ARM",
                    "label": "Description of Planned Arm",
                    "type": "Char",
                    "length": 50
                },
                {
                    "name": "ACTARMCD",
                    "label": "Actual Arm Code",
                    "type": "Char",
                    "length": 50
                },
                {
                    "name": "ACTARM",
                    "label": "Description of Actual Arm",
                    "type": "Char",
                    "length": 50
                },
                {
                    "name": "ARMNRS",
                    "label": "Reason Arm and/or Actual Arm is Null",
                    "type": "Char",
                    "length": 50
                },
                {
                    "name": "ACTARMUD",
                    "label": "Description of Unplanned Actual Arm",
                    "type": "Char",
                    "length": 50
                },
                {
                    "name": "COUNTRY",
                    "label": "Country",
                    "type": "Char",
                    "length": 50
                },
                {
                    "name": "DMDTC",
                    "label": "Date/Time of Collection",
                    "type": "Char",
                    "length": 50
                },
                {
                    "name": "DMDY",
                    "label": "Study Day of Collection",
                    "type": "Num",
                    "length": 8
                }
            ],
            "records": {
                "STUDYID": [
                    "CDISCPILOT01",
                    "CDISCPILOT01",
                    "CDISCPILOT01",
                    "CDISCPILOT01",
                    "CDISCPILOT01",
                    "CDISCPILOT01",
                    "CDISCPILOT01",
                    "CDISCPILOT01",
                    "CDISCPILOT01",
                    "CDISCPILOT01"
                ],
                "DOMAIN": [
                    "DM",
                    "DM",
                    "DM",
                    "DM",
                    "DM",
                    "DM",
                    "DM",
                    "DM",
                    "DM",
                    "DM"
                ],
                "USUBJID": [
                    "CDISC001",
                    "CDISC002",
                    "CDISC003",
                    "CDISC004",
                    "CDISC005",
                    "CDISC006",
                    "CDISC007",
                    "CDISC008",
                    "CDISC009",
                    "CDISC010"
                ],
                "SUBJID": [
                    "1115",
                    "1211",
                    "1302",
                    "1345",
                    "1383",
                    "1429",
                    "1444",
                    "1445",
                    "1087",
                    "1236"
                ],
                "RFSTDTC": [
                    "",
                    "2012-11-15",
                    "",
                    "2013-10-08",
                    "",
                    "2013-10",
                    "2013-01-05",
                    "2014-05-11",
                    "",
                    "2013-09-21"
                ],
                "RFENDTC": [
                    "2013-01-23",
                    "2013-01-14",
                    "2013-11-05",
                    "2014-03-18",
                    "2013-08-06",
                    "2013-04-30",
                    "2013-02-13",
                    "2014-11-01",
                    "2013-04-28",
                    "2013-09-26"
                ],
                "RFXSTDTC": [
                    "2012-11-30",
                    "2012-11-15",
                    "2013-08-29",
                    "2013-10-08",
                    "2013-02-04",
                    "2013-03-19",
                    "2013-01-05",
                    "2014-05-11",
                    "2012-10-22",
                    "2013-09-21"
                ],
                "RFXENDTC": [
                    "2013-01-23",
                    "2013-01-12",
                    "2013-11-05",
                    "2014-03-18",
                    "2013-08-06",
                    "2013-04-30",
                    "2013-02-12",
                    "2014-11-01",
                    "2013-04-28",
                    "2013-09-21"
                ],
                "RFICDTC": [
                    "2012-11-23",
                    "2012-10-30",
                    "2013-08-20",
                    "2013-10-01",
                    "2013-01-22",
                    "2013-02-25",
                    "2012-12-31",
                    "2014-05-01",
                    "2012-10-06",
                    "2013-09-08"
                ],
                "RFPENDTC": [
                    "2013-05-20",
                    "2013-01-14",
                    "2014-02-13",
                    "2014-03-18",
                    "2013-08-06",
                    "2013-04-30",
                    "2013-06-20",
                    "2014-11-01",
                    "2013-04-28",
                    "2013-09-26"
                ],
                "DTHDTC": [
                    "",
                    "2013-01-14",
                    "",
                    "",
                    "",
                    "",
                    "",
                    "2014-11-01",
                    "",
                    ""
                ],
                "DTHFL": [
                    "",
                    "Y",
                    "",
                    "",
                    "",
                    "",
                    "",
                    "Y",
                    "",
                    ""
                ],
                "SITEID": [
                    "701",
                    "701",
                    "701",
                    "701",
                    "701",
                    "701",
                    "701",
                    "704",
                    "708",
                    "708"
                ],
                "BRTHDTC": [
                    "1928",
                    "1936",
                    "1951",
                    "1950",
                    "1941",
                    "1929",
                    "1949",
                    "1939",
                    "1938",
                    "1927"
                ],
                "AGE": [
                    84,
                    76,
                    61,
                    63,
                    72,
                    84,
                    63,
                    75,
                    74,
                    86
                ],
                "AGEU": [
                    "YEARS",
                    "YEARS",
                    "YEARS",
                    "YEARS",
                    "YEARS",
                    "YEARS",
                    "YEARS",
                    "YEARS",
                    "YEARS",
                    "YEARS"
                ],
                "SEX": [
                    "M",
                    "F",
                    "M",
                    "F",
                    "F",
                    "F",
                    "M",
                    "M",
                    "F",
                    "F"
                ],
                "RACE": [
                    "WHITE",
                    "WHITE",
                    "WHITE",
                    "WHITE",
                    "WHITE",
                    "WHITE",
                    "WHITE",
                    "MULTIPLE",
                    "WHITE",
                    "WHITE"
                ],
                "ETHNIC": [
                    "NOT HISPANIC OR LATINO",
                    "NOT HISPANIC OR LATINO",
                    "NOT HISPANIC OR LATINO",
                    "NOT HISPANIC OR LATINO",
                    "NOT HISPANIC OR LATINO",
                    "NOT HISPANIC OR LATINO",
                    "HISPANIC OR LATINO",
                    "NOT HISPANIC OR LATINO",
                    "NOT HISPANIC OR LATINO",
                    "NOT HISPANIC OR LATINO"
                ],
                "ARMCD": [
                    "ZAN_LOW",
                    "ZAN_LOW",
                    "ZAN_HIGH",
                    "",
                    "ZAN_HIGH",
                    "",
                    "ZAN_HIGH",
                    "PLACEBO",
                    "PLACEBO",
                    "ZAN_HIGH"
                ],
                "ARM": [
                    "Zanomaline Low Dose (54 mg)",
                    "Zanomaline Low Dose (54 mg)",
                    "Zanomaline High Dose (81 mg)",
                    "",
                    "Zanomaline High Dose (81 mg)",
                    "",
                    "Zanomaline High Dose (81 mg)",
                    "Placebo",
                    "Placebo",
                    "Zanomaline High Dose (81 mg)"
                ],
                "ACTARMCD": [
                    "ZAN_LOW",
                    "ZAN_LOW",
                    "ZAN_HIGH",
                    "",
                    "",
                    "",
                    "ZAN_HIGH",
                    "PLACEBO",
                    "PLACEBO",
                    "ZAN_HIGH"
                ],
                "ACTARM": [
                    "Zanomaline Low Dose (54 mg)",
                    "Zanomaline Low Dose (54 mg)",
                    "Zanomaline High Dose (81 mg)",
                    "",
                    "",
                    "",
                    "",
                    "Placebo",
                    "Placebo",
                    "Zanomaline High Dose (81 mg)"
                ],
                "ARMNRS": [
                    "",
                    "",
                    "",
                    "SCREEN FAILURE",
                    "NOT TREATED",
                    "NOT ASSIGNED",
                    "UNPLANNED",
                    "",
                    "",
                    ""
                ],
                "ACTARMUD": [
                    "",
                    "",
                    "",
                    "",
                    "",
                    "",
                    "",
                    "",
                    "",
                    ""
                ],
                "COUNTRY": [
                    "USA",
                    "USA",
                    "USA",
                    "USA",
                    "USA",
                    "USA",
                    "USA",
                    "USA",
                    "USA",
                    "USA"
                ],
                "DMDTC": [
                    "",
                    "",
                    "",
                    "",
                    "",
                    "",
                    "",
                    "",
                    "",
                    ""
                ],
                "DMDY": [
                    null,
                    null,
                    null,
                    null,
                    null,
                    null,
                    null,
                    null,
                    null,
                    null
                ]
            }
        },
        {
            "filename": "iq.xpt",
            "label": "Ingredient Quantities by Component",
            "domain": "IQ",
            "variables": [
                {
                    "name": "STUDYID",
                    "label": "Study Identifier",
                    "type": "Char",
                    "length": 50
                },
                {
                    "name": "DOMAIN",
                    "label": "Domain Abbreviation",
                    "type": "Char",
                    "length": 50
                },
                {
                    "name": "IGDCMPID",
                    "label": "Ingredient or Component Identifier",
                    "type": "Char",
                    "length": 50
                },
                {
                    "name": "IQCAT",
                    "label": "Category of Ingredient or Component",
                    "type": "Char",
                    "length": 50
                },
                {
                    "name": "IQPARENT",
                    "label": "Parent of Ingredient or Component",
                    "type": "Char",
                    "length": 50
                },
                {
                    "name": "IQLEVEL",
                    "label": "Ingredient Level in Hierarchy",
                    "type": "Num",
                    "length": 50
                },
                {
                    "name": "IQFUNCT",
                    "label": "Ingredient Function",
                    "type": "Char",
                    "length": 50
                },
                {
                    "name": "IQVALTRG",
                    "label": "Ingredient Target Value",
                    "type": "Num",
                    "length": 50
                },
                {
                    "name": "IQVALMIN",
                    "label": "Ingredient Minimum Value",
                    "type": "Num",
                    "length": 50
                },
                {
                    "name": "IQVALMAX",
                    "label": "Ingredient Maximum Value",
                    "type": "Num",
                    "length": 50
                },
                {
                    "name": "IQVALU",
                    "label": "Ingredient Value Unit",
                    "type": "Char",
                    "length": 50
                }
            ],
            "records": {
                "STUDYID": [
                    "TOB07",
                    "TOB07",
                    "TOB07",
                    "TOB07",
                    "TOB07",
                    "TOB07",
                    "TOB07",
                    "TOB07"
                ],
                "DOMAIN": [
                    "IQ",
                    "IQ",
                    "IQ",
                    "IQ",
                    "IQ",
                    "IQ",
                    "IQ",
                    "IQ"
                ],
                "IGDCMPID": [
                    "Methylcellulose",
                    "1,3-Butanediol",
                    "Cocoa Extract",
                    "Butyric Acid",
                    "Cellulose Filter A",
                    "Cellulose Acetate",
                    "Triacetin",
                    "FSC Paper B"
                ],
                "IQCAT": [
                    "NON-TOBACCO INGREDIENT",
                    "NON-TOBACCO INGREDIENT",
                    "NON-TOBACCO INGREDIENT",
                    "NON-TOBACCO INGREDIENT",
                    "NON-TOBACCO INGREDIENT",
                    "NON-TOBACCO INGREDIENT",
                    "TOBACCO INGREDIENT",
                    "NON-TOBACCO INGREDIENT"
                ],
                "IQPARENT": [
                    "Reconstituted Tobacco",
                    "Reconstituted Tobacco",
                    "Tobacco Filler",
                    "Tobacco Filler",
                    "",
                    "Cellulose Filter A",
                    "Cellulose Filter A",
                    ""
                ],
                "IQLEVEL": [
                    3,
                    3,
                    2,
                    2,
                    1,
                    2,
                    2,
                    1
                ],
                "IQFUNCT": [
                    "Binder",
                    "Humectant",
                    "Flavor",
                    "Flavor",
                    "Filter",
                    "Filtration",
                    "Plasticizer",
                    "Cigarette Paper (Wrapper)"
                ],
                "IQVALTRG": [
                    20,
                    24,
                    7,
                    0.5,
                    164,
                    155,
                    9,
                    50
                ],
                "IQVALMIN": [
                    19,
                    23,
                    6.75,
                    0.55,
                    163,
                    154,
                    8,
                    49
                ],
                "IQVALMAX": [
                    21,
                    25,
                    7.25,
                    0.45,
                    165,
                    156,
                    10,
                    51
                ],
                "IQVALU": [
                    "mg/cigarette",
                    "mg/cigarette",
                    "mg/cigarette",
                    "mg/cigarette",
                    "mg/cigarette",
                    "mg/cigarette",
                    "mg/cigarette",
                    "mg/cigarette"
                ]
            }
        }
    ],
    "standard": {
        "product": "tig",
        "version": "1-0",
        "substandard": "sdtm"
    },
    "codelists": []
}