STUDYID,DOMAIN,USUBJID,ARMCD,ARM,ACTARMCD,ACTARM,ARMNRS,ACTARMUD,SETCD
ABC123,DM,123101,A,Drug A,A,Drug A,,,DRGA_S
ABC123,DM,123102,B,Drug B,B,Drug B,,,DRGB_S
ABC123,DM,123103,,,,,SCREEN FAILURE,,
ABC123,DM,123104,,,,,NOT ASSIGNED,,
ABC123,DM,123105,A,Drug A,,,"ASSIGNED, NOT TREATED",,
ABC123,DM,123106,A,Drug A,A,Drug A,,,DRGA_NS
ABC123,DM,123107,B,Drug B,B,Drug B,,,DRGB_NS
