STUDYID,DOMAIN,USUBJID,SUBJID,RFSTDTC,RFENDTC,RFXSTDTC,RFXENDTC,RFICDTC,RFPENDTC,DTHDTC,DTHFL,SITEID,BRTHDTC,AGE,AGETXT,AGEU,SEX,RACE,ETHNIC,ARMCD,ARM,ACTARMCD,ACTARM,COUNTRY
ABC,DM,015246-076-0003-00003,076000300003,,,,,2018-03-06,2018-05-30,,,0760003,1940-01-14,78,,YEARS,F,WHITE,HISPANIC OR LATINO,SCRNFAIL,Screen Failure,SCRNFail,Screen Failure,BRA
ABC,DM,015246-300-0004-00002,300000400002,,,,,2018-04-17,2018-09-04,2018-09-04,Y,3000004,1947-12-23,70,,YEARS,F,WHITE,NOT HISPANIC OR LATINO,NOTASSGN,Not Assigned,NOTASSGN,Not Assigned,GRC
ABC,DM,015246-999-0004-9999,99900049999,,,,,2018-04-17,2018-09-04,2019-11-18,Y,3000004,1947-12-23,71,,YEARS,F,WHITE,NOT HISPANIC OR LATINO,IKD,IKd,NOTTRT,Not Treated,GRC
ABC,DM,ABC123,076000300003,2018-04-02T11:32,2019-02-19T10:55,2018-04-02T11:32,2019-02-19T10:55,2018-03-06,2021-02-18,2021-02-18,Y,0760003,1940-01-14,78,,YEARS,F,WHITE,HISPANIC OR LATINO,IKD,IKd,IKD,IKd,BRA
ABC,DM,XXX345,300000400002,2018-05-08T11:20,2018-08-29T10:35,2018-05-08T11:20,2018-08-29T10:35,2018-04-17,2018-09-04,,,3000004,1947-12-23,70,,YEARS,F,WHITE,NOT HISPANIC OR LATINO,IKD,IKd,IKD,IKd,GRC
ABC,DM,ZZZ100,99900049999,2018-05-08T11:20,2018-08-29T10:35,2018-05-08T11:20,2018-08-29T10:35,2018-04-17,2018-09-04,2019-11-18,Y,3000004,1947-12-23,71,,YEARS,F,WHITE,NOT HISPANIC OR LATINO,IKD,IKd,IKD,IKd,GRC
