{
    "rule": {
        "Authorities": [
            {
                "Organization": "CDISC",
                "Standards": [
                    {
                        "Name": "SDTMIG",
                        "References": [
                            {
                                "Citations": [
                                    {
                                        "Document": "IG v3.4",
                                        "Section": "4.2.2",
                                        "Cited_Guidance": "The following variables are exceptions to the philosophy that all variable names are prefixed with the Domain Identifier: -Required Identifiers (STUDYID, DOMAIN, USUBJID) -Commonly used grouping and merge Keys (e.g., VISIT, VISITNUM, VISITDY) All Demographics domain (DM) variables other than DMDTC and DMDY -All variables in RELREC and SUPPQUAL, and some variables in Comments and Trial Design datasets. Required Identifiers are not prefixed because they are usually used as keys when merging/joining observations. The --SEQ and the optional Identifiers --GRPID and --REFID are prefixed because they may be used as keys when relating observations across domains."
                                    }
                                ],
                                "Origin": "SDTM and SDTMIG Conformance Rules",
                                "Version": "2.0",
                                "Rule_Identifier": {
                                    "Id": "CG0349",
                                    "Version": "1"
                                }
                            }
                        ],
                        "Version": "3.4"
                    },
                    {
                        "Name": "SDTMIG",
                        "References": [
                            {
                                "Citations": [
                                    {
                                        "Document": "IG v3.2",
                                        "Section": "4.1.2.2",
                                        "Cited_Guidance": "The philosophy applied to determine which variable names use a prefix was that all variable names are prefixed with the Domain Identifier in which they originate except the following: a. Required Identifiers (STUDYID; DOMAIN; USUBJID). b. Commonly used grouping and merge Keys (VISIT; VISITNUM; VISITDY); and many of the variables in trial design (such as ELEMENT and ARM). c. All Demographics domain (DM) variables other than DMDTC and DMDY. d. All variables in RELREC and SUPPQUAL; and some variables in Comments and Trial Design datasets."
                                    }
                                ],
                                "Origin": "SDTM and SDTMIG Conformance Rules",
                                "Version": "2.0",
                                "Rule_Identifier": {
                                    "Id": "CG0349",
                                    "Version": "1"
                                }
                            }
                        ],
                        "Version": "3.2"
                    },
                    {
                        "Name": "SDTMIG",
                        "References": [
                            {
                                "Citations": [
                                    {
                                        "Document": "IG v3.3",
                                        "Section": "4.2.2",
                                        "Cited_Guidance": "The following variables are exceptions to the philosophy that all variable names are prefixed with the Domain Identifier: - Required Identifiers (STUDYID; DOMAIN; USUBJID). -Commonly used grouping and merge Keys (e.g.,VISIT; VISITNUM; VISITDY). -All Demographics domain (DM) variables other than DMDTC and DMDY. -All variables in RELREC and SUPPQUAL; and some variables in Comments and Trial Design datasets. Required Identifiers are not prefixed because they are usually used as keys when merging/joining observations. The --SEQ and the optional Identifiers --GRPID and --REFID are prefixed because they may be used as keys when relating observations across domains."
                                    }
                                ],
                                "Origin": "SDTM and SDTMIG Conformance Rules",
                                "Version": "2.0",
                                "Rule_Identifier": {
                                    "Id": "CG0349",
                                    "Version": "1"
                                }
                            }
                        ],
                        "Version": "3.3"
                    },
                    {
                        "Name": "TIG",
                        "References": [
                            {
                                "Citations": [
                                    {
                                        "Document": "TIG 1.0",
                                        "Item": "5a",
                                        "Section": "2.8.3",
                                        "Cited_Guidance": "Apply the domain code to the appropriate variables in the domain by replacing all variable prefixes (shown in the SDTM as “--“) with the domain code."
                                    }
                                ],
                                "Origin": "TIG Conformance Rules",
                                "Version": "1.0",
                                "Rule_Identifier": {
                                    "Id": "TIG0514",
                                    "Version": "1"
                                }
                            }
                        ],
                        "Substandard": "SDTM",
                        "Version": "1.0"
                    }
                ]
            }
        ],
        "Check": {
            "all": [
                {
                    "name": "$domain_is_custom",
                    "operator": "equal_to",
                    "value": true
                },
                {
                    "name": "variable_name",
                    "operator": "is_not_contained_by",
                    "value": [
                        "STUDYID",
                        "DOMAIN",
                        "USUBJID",
                        "POOLID",
                        "SPDEVID",
                        "VISIT",
                        "VISITNUM",
                        "VISITDY",
                        "ELEMENT",
                        "TAETORD",
                        "EPOCH",
                        "NHOID",
                        "FOCID",
                        "SPTOBID",
                        "STOCONID",
                        "IGDCMPID",
                        "MIDS",
                        "RELMIDS",
                        "MIDSDTC",
                        "RSUBJID",
                        "RDEVID",
                        "SREL",
                        "APID"
                    ]
                },
                {
                    "name": "variable_name",
                    "operator": "prefix_is_not_contained_by",
                    "prefix": 2,
                    "value": "$domain_list"
                }
            ]
        },
        "Core": {
            "Id": "CORE-000376",
            "Status": "Published",
            "Version": "1"
        },
        "Description": "Raise an error when the two first characters of a prefixed variable within a custom domain do not match the DOMAIN value.",
        "Executability": "Fully Executable",
        "Operations": [
            {
                "id": "$domain_list",
                "name": "DOMAIN",
                "operator": "distinct"
            },
            {
                "id": "$domain_is_custom",
                "operator": "domain_is_custom"
            }
        ],
        "Outcome": {
            "Message": "First 2 characters of prefixed variable within custom domain do not match the DOMAIN value.",
            "Output_Variables": [
                "$domain_list",
                "variable_name"
            ]
        },
        "Scope": {
            "Classes": {
                "Include": [
                    "FINDINGS",
                    "INTERVENTIONS",
                    "EVENTS"
                ]
            },
            "Domains": {
                "Include": [
                    "ALL"
                ]
            },
            "Use_Case": "INDH, PROD"
        },
        "Sensitivity": "Record",
        "Rule_Type": "Variable Metadata Check"
    },
    "datasets": [
        {
            "filename": "lb.xpt",
            "label": "Laboratory Test Results",
            "domain": "LB",
            "variables": [
                {
                    "name": "STUDYID",
                    "label": "Study Identifier",
                    "type": "Char",
                    "length": 12
                },
                {
                    "name": "DOMAIN",
                    "label": "Domain Abbreviation",
                    "type": "Char",
                    "length": 2
                },
                {
                    "name": "USUBJID",
                    "label": "Unique Subject Identifier",
                    "type": "Char",
                    "length": 8
                },
                {
                    "name": "X1SEQ",
                    "label": "Sequence Number",
                    "type": "Num",
                    "length": 8
                },
                {
                    "name": "LBTESTCD",
                    "label": "Lab Test or Examination Short Name",
                    "type": "Char",
                    "length": 7
                },
                {
                    "name": "LBTEST",
                    "label": "Lab Test or Examination Name",
                    "type": "Char",
                    "length": 39
                },
                {
                    "name": "LBCAT",
                    "label": "Category for Lab Test",
                    "type": "Char",
                    "length": 10
                },
                {
                    "name": "LBORRES",
                    "label": "Result or Finding in Original Units",
                    "type": "Char",
                    "length": 6
                },
                {
                    "name": "LBORRESU",
                    "label": "Original Units",
                    "type": "Char",
                    "length": 7
                },
                {
                    "name": "LBORNRLO",
                    "label": "Reference Range Lower Limit in Orig Unit",
                    "type": "Char",
                    "length": 200
                },
                {
                    "name": "LBORNRHI",
                    "label": "Reference Range Upper Limit in Orig Unit",
                    "type": "Char",
                    "length": 200
                },
                {
                    "name": "LBSTRESC",
                    "label": "Character Result/Finding in Std Format",
                    "type": "Char",
                    "length": 8
                },
                {
                    "name": "LBSTRESN",
                    "label": "Numeric Result/Finding in Standard Units",
                    "type": "Num",
                    "length": 8
                },
                {
                    "name": "LBSTRESU",
                    "label": "Standard Units",
                    "type": "Char",
                    "length": 7
                },
                {
                    "name": "LBSTNRLO",
                    "label": "Reference Range Lower Limit-Std Units",
                    "type": "Num",
                    "length": 8
                },
                {
                    "name": "LBSTNRHI",
                    "label": "Reference Range Upper Limit-Std Units",
                    "type": "Num",
                    "length": 8
                },
                {
                    "name": "LBNRIND",
                    "label": "Reference Range Indicator",
                    "type": "Char",
                    "length": 8
                },
                {
                    "name": "LBSTAT",
                    "label": "Completion Status",
                    "type": "Char",
                    "length": 50
                },
                {
                    "name": "LBLOBXFL",
                    "label": "Last Observation Before Exposure Flag",
                    "type": "Char",
                    "length": 1
                },
                {
                    "name": "LBDRVFL",
                    "label": "Derived Flag",
                    "type": "Char",
                    "length": 50
                },
                {
                    "name": "VISITNUM",
                    "label": "Visit Number",
                    "type": "Num",
                    "length": 8
                },
                {
                    "name": "VISIT",
                    "label": "Visit Name",
                    "type": "Char",
                    "length": 200
                },
                {
                    "name": "EPOCH",
                    "label": "Epoch",
                    "type": "Char",
                    "length": 9
                },
                {
                    "name": "LBDTC",
                    "label": "Date/Time of Specimen Collection",
                    "type": "Char",
                    "length": 19
                },
                {
                    "name": "LBDY",
                    "label": "Study Day of Specimen Collection",
                    "type": "Num",
                    "length": 8
                }
            ],
            "records": {
                "STUDYID": [
                    "CDISCPILOT01",
                    "CDISCPILOT01",
                    "CDISCPILOT01"
                ],
                "DOMAIN": [
                    "LB",
                    "LB",
                    "LB"
                ],
                "USUBJID": [
                    "CDISC001",
                    "CDISC001",
                    "CDISC001"
                ],
                "X1SEQ": [
                    1,
                    2,
                    3
                ],
                "LBTESTCD": [
                    "ALB",
                    "ALP",
                    "ALB"
                ],
                "LBTEST": [
                    "Albumin",
                    "Alkaline Phosphatase",
                    "Albumin"
                ],
                "LBCAT": [
                    "CHEMISTRY",
                    "CHEMISTRY",
                    "CHEMISTRY"
                ],
                "LBORRES": [
                    "3.9",
                    "",
                    ""
                ],
                "LBORRESU": [
                    "g/dL",
                    "U/L",
                    "g/dL"
                ],
                "LBORNRLO": [
                    "3.5",
                    "35",
                    "3.5"
                ],
                "LBORNRHI": [
                    "4.6",
                    "115",
                    "4.6"
                ],
                "LBSTRESC": [
                    "39",
                    "93",
                    "39"
                ],
                "LBSTRESN": [
                    39,
                    93,
                    39
                ],
                "LBSTRESU": [
                    "g/L",
                    "U/L",
                    "g/L"
                ],
                "LBSTNRLO": [
                    35,
                    35,
                    35
                ],
                "LBSTNRHI": [
                    46,
                    115,
                    46
                ],
                "LBNRIND": [
                    "NORMAL",
                    "NORMAL",
                    "NORMAL"
                ],
                "LBSTAT": [
                    "",
                    "NOT DONE",
                    ""
                ],
                "LBLOBXFL": [
                    "Y",
                    "Y",
                    "Y"
                ],
                "LBDRVFL": [
                    "",
                    "",
                    "Y"
                ],
                "VISITNUM": [
                    1,
                    1,
                    1
                ],
                "VISIT": [
                    "SCREENING 1",
                    "SCREENING 1",
                    "SCREENING 1"
                ],
                "EPOCH": [
                    "SCREENING",
                    "SCREENING",
                    "SCREENING"
                ],
                "LBDTC": [
                    "2012-11-23T11:20",
                    "2012-11-23T11:20",
                    "2012-11-23T11:20"
                ],
                "LBDY": [
                    -7,
                    -7,
                    -7
                ]
            }
        },
        {
            "filename": "zb.xpt",
            "label": "Conventional Test Results ",
            "domain": "ZB",
            "variables": [
                {
                    "name": "STUDYID",
                    "label": "Study Identifier",
                    "type": "Char",
                    "length": 12
                },
                {
                    "name": "DOMAIN",
                    "label": "Domain Abbreviation",
                    "type": "Char",
                    "length": 2
                },
                {
                    "name": "USUBJID",
                    "label": "Unique Subject Identifier",
                    "type": "Char",
                    "length": 8
                },
                {
                    "name": "ZBSEQ",
                    "label": "Sequence Number",
                    "type": "Num",
                    "length": 8
                },
                {
                    "name": "ZBTESTCD",
                    "label": "Lab Test or Examination Short Name",
                    "type": "Char",
                    "length": 7
                },
                {
                    "name": "ZBTEST",
                    "label": "Lab Test or Examination Name",
                    "type": "Char",
                    "length": 39
                },
                {
                    "name": "ZBCAT",
                    "label": "Category for Lab Test",
                    "type": "Char",
                    "length": 10
                },
                {
                    "name": "ZBORRES",
                    "label": "Result or Finding in Original Units",
                    "type": "Char",
                    "length": 6
                },
                {
                    "name": "ZBORRESU",
                    "label": "Original Units",
                    "type": "Char",
                    "length": 7
                },
                {
                    "name": "ZBORNRLO",
                    "label": "Reference Range Lower Limit in Orig Unit",
                    "type": "Char",
                    "length": 200
                },
                {
                    "name": "ZBORNRHI",
                    "label": "Reference Range Upper Limit in Orig Unit",
                    "type": "Char",
                    "length": 200
                },
                {
                    "name": "ZBSTRESC",
                    "label": "Character Result/Finding in Std Format",
                    "type": "Char",
                    "length": 8
                },
                {
                    "name": "ZBSTRESN",
                    "label": "Numeric Result/Finding in Standard Units",
                    "type": "Num",
                    "length": 8
                },
                {
                    "name": "ZBSTRESU",
                    "label": "Standard Units",
                    "type": "Char",
                    "length": 7
                },
                {
                    "name": "ZBSTNRLO",
                    "label": "Reference Range Lower Limit-Std Units",
                    "type": "Num",
                    "length": 8
                },
                {
                    "name": "ZBSTNRHI",
                    "label": "Reference Range Upper Limit-Std Units",
                    "type": "Num",
                    "length": 8
                },
                {
                    "name": "ZBNRIND",
                    "label": "Reference Range Indicator",
                    "type": "Char",
                    "length": 8
                },
                {
                    "name": "ZBSTAT",
                    "label": "Completion Status",
                    "type": "Char",
                    "length": 50
                },
                {
                    "name": "ZBLOBXFL",
                    "label": "Last Observation Before Exposure Flag",
                    "type": "Char",
                    "length": 1
                },
                {
                    "name": "ZBDRVFL",
                    "label": "Derived Flag",
                    "type": "Char",
                    "length": 50
                },
                {
                    "name": "VISITNUM",
                    "label": "Visit Number",
                    "type": "Num",
                    "length": 8
                },
                {
                    "name": "VISIT",
                    "label": "Visit Name",
                    "type": "Char",
                    "length": 200
                },
                {
                    "name": "EPOCH",
                    "label": "Epoch",
                    "type": "Char",
                    "length": 9
                },
                {
                    "name": "ZBDTC",
                    "label": "Date/Time of Specimen Collection",
                    "type": "Char",
                    "length": 19
                },
                {
                    "name": "ZBDY",
                    "label": "Study Day of Specimen Collection",
                    "type": "Num",
                    "length": 8
                }
            ],
            "records": {
                "STUDYID": [
                    "CDISCPILOT01",
                    "CDISCPILOT01",
                    "CDISCPILOT01"
                ],
                "DOMAIN": [
                    "ZB",
                    "ZB",
                    "ZB"
                ],
                "USUBJID": [
                    "CDISC001",
                    "CDISC001",
                    "CDISC001"
                ],
                "ZBSEQ": [
                    1,
                    2,
                    3
                ],
                "ZBTESTCD": [
                    "AZB",
                    "ALP",
                    "AZB"
                ],
                "ZBTEST": [
                    "AZBumin",
                    "Alkaline Phosphatase",
                    "AZBumin"
                ],
                "ZBCAT": [
                    "CHEMISTRY",
                    "CHEMISTRY",
                    "CHEMISTRY"
                ],
                "ZBORRES": [
                    "3.9",
                    "",
                    ""
                ],
                "ZBORRESU": [
                    "g/dL",
                    "U/L",
                    "g/dL"
                ],
                "ZBORNRLO": [
                    "3.5",
                    "35",
                    "3.5"
                ],
                "ZBORNRHI": [
                    "4.6",
                    "115",
                    "4.6"
                ],
                "ZBSTRESC": [
                    "39",
                    "93",
                    "39"
                ],
                "ZBSTRESN": [
                    39,
                    93,
                    39
                ],
                "ZBSTRESU": [
                    "g/L",
                    "U/L",
                    "g/L"
                ],
                "ZBSTNRLO": [
                    35,
                    35,
                    35
                ],
                "ZBSTNRHI": [
                    46,
                    115,
                    46
                ],
                "ZBNRIND": [
                    "NORMAL",
                    "NORMAL",
                    "NORMAL"
                ],
                "ZBSTAT": [
                    "",
                    "",
                    ""
                ],
                "ZBLOBXFL": [
                    "Y",
                    "Y",
                    "Y"
                ],
                "ZBDRVFL": [
                    "",
                    "",
                    ""
                ],
                "VISITNUM": [
                    1,
                    1,
                    1
                ],
                "VISIT": [
                    "SCREENING 1",
                    "SCREENING 1",
                    "SCREENING 1"
                ],
                "EPOCH": [
                    "SCREENING",
                    "SCREENING",
                    "SCREENING"
                ],
                "ZBDTC": [
                    "2012-11-23T11:20",
                    "2012-11-23T11:20",
                    "2012-11-23T11:20"
                ],
                "ZBDY": [
                    -7,
                    -7,
                    -7
                ]
            }
        }
    ],
    "standard": {
        "product": "sdtmig",
        "version": "3-4"
    },
    "codelists": []
}