STUDYID,DOMAIN,USUBJID,AESEQ,AESPID,AETERM,AELLT,AELLTCD,AEDECOD,AEPTCD,AEHLT,AEHLTCD,AEHLGT,AEHLGTCD,AECAT,AEBODSYS,AEBDSYCD,AESOC,AESOCCD,AESEV,AESER,AEACN,AEREL,AEOUT,AESHOSP,AESTDTC,AEENDTC,AESTDY
CDISC-TEST,AE,CDISC-TEST-054,879,866,NASOPHARYNGITIS,Nasopharyngitis,10028810,Nasopharyngitis,10028810,Upper respiratory tract infections,10046309,Infections - pathogen unspecified,10021879,,Infections and infestations,10021881,Infections and infestations,10021881,MILD,N,,,RECOVERED/RESOLVED,N,2019-07-12,,136
CDISC-TEST,AE,CDISC-TEST-054,880,874,PNEUMONIA,Pneumonia,10035664,Pneumonia,10035664,Lower respiratory tract and lung infections,10025101,Infections - pathogen unspecified,10021879,,Infections and infestations,10021881,Infections and infestations,10021881,MODERATE,N,,,RECOVERED/RESOLVED,Y,2019-05-22,,85
CDISC-TEST,AE,CDISC-TEST-055,881,899,CARDIAC ARREST,Cardiac arrest,10007515,Cardiac arrest,10007515,Ventricular arrhythmias and cardiac arrest,10047283,Cardiac arrhythmias,10007521,,Cardiac disorders,10007541,Cardiac disorders,10007541,SEVERE,Y,,,NOT RECOVERED/NOT RESOLVED,Y,2019-08-31,,178
CDISC-TEST,AE,CDISC-TEST-055,882,895,DIARRHOEA,Diarrhoea,10012735,Diarrhoea,10012735,Diarrhoea (excl infective),10012736,Gastrointestinal motility and defaecation conditions,10017977,,Gastrointestinal disorders,10017947,Gastrointestinal disorders,10017947,MILD,N,,,RECOVERED/RESOLVED,N,2019-04-18,,43
CDISC-TEST,AE,CDISC-TEST-099,1591,1589,HYPOGLYCAEMIA,Hypoglycaemia,10020993,Hypoglycaemia,10020993,Hypoglycaemic conditions NEC,10021001,Glucose metabolism disorders (incl diabetes mellitus),10018424,,Metabolism and nutrition disorders,10027433,Metabolism and nutrition disorders,10027433,MILD,N,,,RECOVERED/RESOLVED,N,2019-05-28,,87
CDISC-TEST,AE,CDISC-TEST-099,1592,1588,HYPOGLYCAEMIA,Hypoglycaemia,10020993,Hypoglycaemia,10020993,Hypoglycaemic conditions NEC,10021001,Glucose metabolism disorders (incl diabetes mellitus),10018424,,Metabolism and nutrition disorders,10027433,Metabolism and nutrition disorders,10027433,MODERATE,N,,,RECOVERED/RESOLVED,N,2019-05-31,,90
CDISC-TEST,AE,CDISC-TEST-099,1593,1586,PNEUMONIA,Pneumonia,10035664,Pneumonia,10035664,Lower respiratory tract and lung infections,10025101,Infections - pathogen unspecified,10021879,AESI,Infections and infestations,10021881,Infections and infestations,10021881,MODERATE,N,,,RECOVERED/RESOLVED,Y,2019-06-07,,97
CDISC-TEST,AE,CDISC-TEST-099,1594,1584,PNEUMONIA,Pneumonia,10035664,Pneumonia,10035664,Lower respiratory tract and lung infections,10025101,Infections - pathogen unspecified,10021879,AESI,Infections and infestations,10021881,Infections and infestations,10021881,MILD,N,,,RECOVERED/RESOLVED,N,2019-07-28,,148
CDISC-TEST,AE,CDISC-TEST-100,1596,1603,UPSET STOMACH,Upset stomach,10046318,Abdominal discomfort,10000059,Gastrointestinal signs and symptoms NEC,10027678,Gastrointestinal signs and symptoms,10018012,,Gastrointestinal disorders,10017947,Gastrointestinal disorders,10017947,MILD,N,,,RECOVERED/RESOLVED,N,2019-05-30,,88
CDISC-TEST,AE,CDISC-TEST-100,1597,1616,ATRIAL FIBRILLATION,Atrial fibrillation,10003658,Atrial fibrillation,10003658,Supraventricular arrhythmias,10042600,Cardiac arrhythmias,10007521,Gastrointestinal disorders,Cardiac disorders,10007541,Cardiac disorders,10007541,SEVERE,Y,,,FATAL,Y,2019-08-27,,177
CDISC-TEST,AE,CDISC-TEST-100,1598,1615,BACK PAIN,Back pain,10003988,Back pain,10003988,Musculoskeletal and connective tissue pain and discomfort,10068757,Musculoskeletal and connective tissue disorders NEC,10028393,,Musculoskeletal and connective tissue disorders,10028395,Musculoskeletal and connective tissue disorders,10028395,MILD,N,,,RECOVERED/RESOLVED,N,2019-03-05,,2
CDISC-TEST,AE,CDISC-TEST-100,1599,1614,BACK PAIN,Back pain,10003988,Back pain,10003988,Musculoskeletal and connective tissue pain and discomfort,10068757,Musculoskeletal and connective tissue disorders NEC,10028393,CARDIAC DISORDERS,Musculoskeletal and connective tissue disorders,10028395,Musculoskeletal and connective tissue disorders,10028395,MILD,N,,,RECOVERED/RESOLVED,N,2019-03-06,,3
