STUDYID,DOMAIN,USUBJID,MHSEQ,MHTERM,MHEVDTYP,MHSCAT,MHBODSYS,MHSOC,MHSTDTC,MHSTDY
CDISCPILOT01,MH,CDISC003,1,ALZHEIMER'S DISEASE,SYMPTOM ONSET,Neurodegenerative Diseases,Neurodegenerative Diseases,Neurodegenerative Diseases,2007-02-09,-2393
CDISCPILOT01,MH,CDISC004,1,ALZHEIMER'S DISEASE,SYMPTOM ONSET,NEURODEGENERATIVE DISEASES,Bodysystem 1,Bodysystem 1,2010-11-05,-1068
CDISCPILOT01,MH,CDISC005,1,ALZHEIMER'S DISEASE,SYMPTOM ONSET,Neurodegenerative Diseases,Neurodegenerative Diseases,Neurodegenerative Diseases,2006-08-20,-2360
CDISCPILOT01,MH,CDISC006,1,ALZHEIMER'S DISEASE,SYMPTOM ONSET,Neurodegenerative Diseases,Neurodegenerative Diseases,Neurodegenerative Diseases,2008-06-17,-1736
CDISCPILOT01,MH,CDISC007,1,ALZHEIMER'S DISEASE,SYMPTOM ONSET,Neurodegenerative Diseases,,,2008-05-21,-1690
CDISCPILOT01,MH,CDISC008,1,ALZHEIMER'S DISEASE,SYMPTOM ONSET,Neurodegenerative Diseases,NEURODEGENERATIVE DISEASES,NEURODEGENERATIVE DISEASES,2012-11-11,-546
