STUDYID,DOMAIN,USUBJID,AESEQ,AELNKID,AETERM,AELLT,AELLTCD,AEDECOD,AEPTCD,AEHLT,AEHLTCD,AEHLGT,AEHLGTCD,AEBODSYS,AEBDSYCD,AESOC,AESOCCD,AESEV,AESER,AEACN,AEREL,AEOUT,AESCAN,AESCONG,AESDISAB,AESDTH,AESHOSP,AESLIFE,AESOD,EPOCH,AESTDTC,AEENDTC,AESTDY,AEENDY,AEENRTPT,AEENTPT
CDISCPILOT01,AE,CDISC001,1,1,INJECTION SITE REACTION,,,INJECTION SITE REACTION,INJECTION SITE REACTION,,,,,,,,,MODERATE,N,DRUG WITHDRAWN,RELATED,NOT RECOVERED/NOT RESOLVED,N,N,N,N,N,N,N,TREATMENT,2012-12-02,,3,,ONGOING,2013-05-20
CDISCPILOT01,AE,CDISC001,2,2,FATIGUE,,,FATIGUE,FATIGUE,,,,,,,,,MODERATE,N,DOSE NOT CHANGED,UNLIKELY RELATED,NOT RECOVERED/NOT RESOLVED,N,N,N,N,N,N,N,TREATMENT,2013-01-14,,46,,ONGOING,2013-05-20
CDISCPILOT01,AE,CDISC002,1,1,INJECTION SITE REACTION,,,INJECTION SITE REACTION,INJECTION SITE REACTION,,,,,,,,,MILD,N,DOSE NOT CHANGED,POSSIBLY RELATED,NOT RECOVERED/NOT RESOLVED,N,N,N,N,N,N,N,TREATMENT,2012-11-16,,2,,ONGOING,2013-01-14
CDISCPILOT01,AE,CDISC002,2,2,SHOULDER PAIN,,,SHOULDER PAIN,SHOULDER PAIN,,,,,,,,,MILD,N,DOSE NOT CHANGED,NOT RELATED,NOT RECOVERED/NOT RESOLVED,N,N,N,N,N,N,N,TREATMENT,2012-11-21,,7,,ONGOING,2013-01-14
CDISCPILOT01,AE,CDISC002,3,3,JOINT DISLOCATION,,,JOINT DISLOCATION,JOINT DISLOCATION,,,,,,,,,MODERATE,N,DOSE NOT CHANGED,NOT RELATED,RECOVERED/RESOLVED,N,N,N,N,N,N,N,TREATMENT,2012-11-21,2012-11-21,7,7,,
CDISCPILOT01,AE,CDISC002,4,4,INCONTINENCE,,,INCONTINENCE,INCONTINENCE,,,,,,,,,MILD,N,DOSE NOT CHANGED,NOT RELATED,NOT RECOVERED/NOT RESOLVED,N,N,N,N,N,N,N,TREATMENT,2012-11-22,,8,,ONGOING,2013-01-14
CDISCPILOT01,AE,CDISC002,5,5,INJECTION SITE REACTION,,,INJECTION SITE REACTION,INJECTION SITE REACTION,,,,,,,,,MILD,N,DOSE NOT CHANGED,POSSIBLY RELATED,NOT RECOVERED/NOT RESOLVED,N,N,N,N,N,N,N,TREATMENT,2012-11-29,,15,,ONGOING,2013-01-14
CDISCPILOT01,AE,CDISC002,6,6,SKIN LACERATION,,,SKIN LACERATION,SKIN LACERATION,,,,,,,,,MILD,N,DOSE NOT CHANGED,NOT RELATED,NOT RECOVERED/NOT RESOLVED,N,N,N,N,N,N,N,TREATMENT,2012-12-09,,25,,ONGOING,2013-01-14
CDISCPILOT01,AE,CDISC002,7,7,CONFUSIONAL STATE,,,CONFUSIONAL STATE,CONFUSIONAL STATE,,,,,,,,,MODERATE,N,DOSE NOT CHANGED,NOT RELATED,NOT RECOVERED/NOT RESOLVED,N,N,N,N,N,N,N,TREATMENT,2013-01-11,,58,,ONGOING,2013-01-14
CDISCPILOT01,AE,CDISC002,8,8,DYSPNOEA,,,DYSPNOEA,DYSPNOEA,,,,,,,,,MODERATE,N,DOSE NOT CHANGED,NOT RELATED,NOT RECOVERED/NOT RESOLVED,N,N,N,N,N,N,N,TREATMENT,2013-01-11,,58,,ONGOING,2013-01-14
CDISCPILOT01,AE,CDISC002,9,9,SUDDEN DEATH,,,SUDDEN DEATH,SUDDEN DEATH,,,,,,,,,SEVERE,Y,DRUG WITHDRAWN,NOT RELATED,FATAL,N,N,N,Y,N,Y,N,TREATMENT,2013-01-14,2013-01-14,61,61,,
CDISCPILOT01,AE,CDISC003,1,1,HYPERHIDROSIS,,,HYPERHIDROSIS,HYPERHIDROSIS,,,,,,,,,MILD,N,DOSE NOT CHANGED,POSSIBLY RELATED,NOT RECOVERED/NOT RESOLVED,N,N,N,N,N,N,N,TREATMENT,2013-08-30,,2,,ONGOING,2013-02-13
CDISCPILOT01,AE,CDISC003,2,2,STOMACH DISCOMFORT,,,STOMACH DISCOMFORT,STOMACH DISCOMFORT,,,,,,,,,MILD,N,DOSE NOT CHANGED,POSSIBLY RELATED,NOT RECOVERED/NOT RESOLVED,N,N,N,N,N,N,N,TREATMENT,2013-08-30,,2,,ONGOING,2013-02-13
CDISCPILOT01,AE,CDISC003,3,3,PAIN,,,PAIN,PAIN,,,,,,,,,MILD,N,DOSE NOT CHANGED,POSSIBLY RELATED,NOT RECOVERED/NOT RESOLVED,N,N,N,N,N,N,N,TREATMENT,2013-08-31,,3,,ONGOING,2013-02-13
CDISCPILOT01,AE,CDISC003,4,4,NASAL CONGESTION,,,NASAL CONGESTION,NASAL CONGESTION,,,,,,,,,MILD,N,DOSE NOT CHANGED,NOT RELATED,NOT RECOVERED/NOT RESOLVED,N,N,N,N,N,N,N,TREATMENT,2013-09-01,,4,,ONGOING,2013-02-13
CDISCPILOT01,AE,CDISC003,5,5,MALAISE,,,MALAISE,MALAISE,,,,,,,,,MODERATE,N,DOSE NOT CHANGED,UNLIKELY RELATED,NOT RECOVERED/NOT RESOLVED,N,N,N,N,N,N,N,TREATMENT,2013-09-02,,5,,ONGOING,2013-02-13
CDISCPILOT01,AE,CDISC003,6,6,MYALGIA,,,MYALGIA,MYALGIA,,,,,,,,,MILD,N,DOSE NOT CHANGED,POSSIBLY RELATED,NOT RECOVERED/NOT RESOLVED,N,N,N,N,N,N,N,TREATMENT,2013-09-02,,5,,ONGOING,2013-02-13
CDISCPILOT01,AE,CDISC003,7,7,PHARYNGOLARYNGEAL PAIN,,,PHARYNGOLARYNGEAL PAIN,PHARYNGOLARYNGEAL PAIN,,,,,,,,,MILD,N,DOSE NOT CHANGED,NOT RELATED,NOT RECOVERED/NOT RESOLVED,N,N,N,N,N,N,N,TREATMENT,2013-09-02,,5,,ONGOING,2013-02-13
CDISCPILOT01,AE,CDISC003,8,8,PRODUCTIVE COUGH,,,PRODUCTIVE COUGH,PRODUCTIVE COUGH,,,,,,,,,MILD,N,DOSE NOT CHANGED,NOT RELATED,NOT RECOVERED/NOT RESOLVED,N,N,N,N,N,N,N,TREATMENT,2013-09-02,,5,,ONGOING,2013-02-13
CDISCPILOT01,AE,CDISC003,9,9,DIZZINESS,,,DIZZINESS,DIZZINESS,,,,,,,,,MODERATE,N,DOSE NOT CHANGED,UNLIKELY RELATED,RECOVERED/RESOLVED,N,N,N,N,N,N,N,TREATMENT,2013-09-02,2013-09-03,5,6,,
CDISCPILOT01,AE,CDISC003,10,10,DIZZINESS,,,DIZZINESS,DIZZINESS,,,,,,,,,MILD,N,DOSE NOT CHANGED,POSSIBLY RELATED,NOT RECOVERED/NOT RESOLVED,N,N,N,N,N,N,N,TREATMENT,2013-09-04,,7,,ONGOING,2013-02-13
CDISCPILOT01,AE,CDISC003,11,11,CONTUSION,,,CONTUSION,CONTUSION,,,,,,,,,MILD,N,DOSE NOT CHANGED,UNLIKELY RELATED,RECOVERED/RESOLVED,N,N,N,N,N,N,N,TREATMENT,2013-09-05,2013-10-08,8,41,,
CDISCPILOT01,AE,CDISC003,12,12,HEADACHE,,,HEADACHE,HEADACHE,,,,,,,,,MILD,N,DOSE NOT CHANGED,NOT RELATED,NOT RECOVERED/NOT RESOLVED,N,N,N,N,N,N,N,TREATMENT,2013-09-15,,18,,ONGOING,2013-02-13
CDISCPILOT01,AE,CDISC003,13,13,EPISTAXIS,,,EPISTAXIS,EPISTAXIS,,,,,,,,,MILD,Y,DOSE NOT CHANGED,UNLIKELY RELATED,NOT RECOVERED/NOT RESOLVED,N,N,N,N,N,N,N,TREATMENT,2013-09-30,,33,,ONGOING,2013-02-13
CDISCPILOT01,AE,CDISC003,14,14,INJECTION SITE REACTION,,,INJECTION SITE REACTION,INJECTION SITE REACTION,,,,,,,,,MILD,N,DOSE NOT CHANGED,RELATED,NOT RECOVERED/NOT RESOLVED,N,N,N,N,N,N,N,TREATMENT,2013-10-15,,48,,ONGOING,2013-02-13
CDISCPILOT01,AE,CDISC003,15,16,RESPIRATORY TRACT CONGESTION,,,RESPIRATORY TRACT CONGESTION,RESPIRATORY TRACT CONGESTION,,,,,,,,,MILD,N,DOSE NOT CHANGED,NOT RELATED,NOT RECOVERED/NOT RESOLVED,N,N,N,N,N,N,N,TREATMENT,2013-10-23,,56,,ONGOING,2013-02-13
CDISCPILOT01,AE,CDISC003,16,17,RHINITIS,,,RHINITIS,RHINITIS,,,,,,,,,MILD,N,DOSE NOT CHANGED,NOT RELATED,NOT RECOVERED/NOT RESOLVED,N,N,N,N,N,N,N,TREATMENT,2013-10-23,,56,,ONGOING,2013-02-13
CDISCPILOT01,AE,CDISC003,17,18,FEELING ABNORMAL,,,FEELING ABNORMAL,FEELING ABNORMAL,,,,,,,,,MILD,N,DOSE NOT CHANGED,POSSIBLY RELATED,NOT RECOVERED/NOT RESOLVED,N,N,N,N,N,N,N,TREATMENT,2013-10-24,,57,,ONGOING,2013-02-13
CDISCPILOT01,AE,CDISC003,18,19,LIBIDO DECREASED,,,LIBIDO DECREASED,LIBIDO DECREASED,,,,,,,,,MILD,N,DOSE NOT CHANGED,POSSIBLY RELATED,NOT RECOVERED/NOT RESOLVED,N,N,N,N,N,N,N,TREATMENT,2013-10-24,,57,,ONGOING,2013-02-13
CDISCPILOT01,AE,CDISC003,19,20,LISTLESS,,,LISTLESS,LISTLESS,,,,,,,,,MILD,N,DRUG WITHDRAWN,POSSIBLY RELATED,NOT RECOVERED/NOT RESOLVED,N,N,N,N,N,N,N,TREATMENT,2013-10-24,,57,,ONGOING,2013-02-13
CDISCPILOT01,AE,CDISC005,1,1,INJECTION SITE REACTION,,,INJECTION SITE REACTION,INJECTION SITE REACTION,,,,,,,,,MILD,N,DOSE NOT CHANGED,RELATED,RECOVERED/RESOLVED,N,N,N,N,N,N,N,TREATMENT,2013-02-07,2013-02-07,4,4,,
CDISCPILOT01,AE,CDISC005,2,2,INJECTION SITE REACTION,,,INJECTION SITE REACTION,INJECTION SITE REACTION,,,,,,,,,MILD,N,DOSE NOT CHANGED,POSSIBLY RELATED,NOT RECOVERED/NOT RESOLVED,N,N,N,N,N,N,N,TREATMENT,2013-03-23,,48,,ONGOING,2013-08-06
CDISCPILOT01,AE,CDISC005,3,4,INJECTION SITE REACTION,,,INJECTION SITE REACTION,INJECTION SITE REACTION,,,,,,,,,MILD,N,DOSE NOT CHANGED,POSSIBLY RELATED,RECOVERED/RESOLVED,N,N,N,N,N,N,N,TREATMENT,2013-03-23,2013-03-26,48,51,,
CDISCPILOT01,AE,CDISC005,4,5,INJECTION SITE REACTION,,,INJECTION SITE REACTION,INJECTION SITE REACTION,,,,,,,,,MILD,N,DOSE NOT CHANGED,POSSIBLY RELATED,NOT RECOVERED/NOT RESOLVED,N,N,N,N,N,N,N,TREATMENT,2013-04-12,,68,,ONGOING,2013-08-06
CDISCPILOT01,AE,CDISC005,5,7,CHEST DISCOMFORT,,,CHEST DISCOMFORT,CHEST DISCOMFORT,,,,,,,,,MILD,N,DOSE NOT CHANGED,NOT RELATED,RECOVERED/RESOLVED,N,N,N,N,N,N,N,TREATMENT,2013-06-24,2013-06-24,141,141,,
CDISCPILOT01,AE,CDISC005,6,8,HEADACHE,,,HEADACHE,HEADACHE,,,,,,,,,MILD,N,DOSE NOT CHANGED,NOT RELATED,RECOVERED/RESOLVED,N,N,N,N,N,N,N,TREATMENT,2013-06-24,2013-06-24,141,141,,
CDISCPILOT01,AE,CDISC005,7,9,COUGH,,,COUGH,COUGH,,,,,,,,,MODERATE,N,DOSE NOT CHANGED,NOT RELATED,RECOVERED/RESOLVED,N,N,N,N,N,N,N,TREATMENT,2013-07-17,2013-07-26,164,173,,
CDISCPILOT01,AE,CDISC007,1,1,INJECTION SITE REACTION,,,INJECTION SITE REACTION,INJECTION SITE REACTION,,,,,,,,,MODERATE,N,DRUG WITHDRAWN,POSSIBLY RELATED,NOT RECOVERED/NOT RESOLVED,N,N,N,N,N,N,N,TREATMENT,2013-01-19,,15,,ONGOING,2013-06-20
CDISCPILOT01,AE,CDISC007,2,5,SALIVARY HYPERSECRETION,,,SALIVARY HYPERSECRETION,SALIVARY HYPERSECRETION,,,,,,,,,MILD,N,DOSE NOT CHANGED,POSSIBLY RELATED,NOT RECOVERED/NOT RESOLVED,N,N,N,N,N,N,N,TREATMENT,2013-01-19,,15,,ONGOING,2013-06-20
CDISCPILOT01,AE,CDISC007,3,6,PARAESTHESIA,,,PARAESTHESIA,PARAESTHESIA,,,,,,,,,MILD,N,DOSE NOT CHANGED,NOT RELATED,RECOVERED/RESOLVED,N,N,N,N,N,N,N,TREATMENT,2013-02-08,2013-02-08,35,35,,
CDISCPILOT01,AE,CDISC008,1,1,COMPLETED SUICIDE,,,COMPLETED SUICIDE,COMPLETED SUICIDE,,,,,,,,,SEVERE,Y,DRUG WITHDRAWN,NOT RELATED,FATAL,N,N,N,Y,N,N,N,TREATMENT,2014-10-31,2014-10-31,174,174,,
CDISCPILOT01,AE,CDISC009,1,1,HEART RATE IRREGULAR,,,HEART RATE IRREGULAR,HEART RATE IRREGULAR,,,,,,,,,MILD,N,DOSE NOT CHANGED,POSSIBLY RELATED,RECOVERED/RESOLVED,N,N,N,N,N,N,N,TREATMENT,2013-01-19,2013-01-19,90,90,,
CDISCPILOT01,AE,CDISC009,2,2,DIZZINESS,,,DIZZINESS,DIZZINESS,,,,,,,,,MILD,N,DOSE NOT CHANGED,POSSIBLY RELATED,RECOVERED/RESOLVED,N,N,N,N,N,N,N,TREATMENT,2013-02-04,2013-02-08,106,110,,
CDISCPILOT01,AE,CDISC009,3,3,HEADACHE,,,HEADACHE,HEADACHE,,,,,,,,,MILD,N,DOSE NOT CHANGED,NOT RELATED,NOT RECOVERED/NOT RESOLVED,N,N,N,N,N,N,N,TREATMENT,2013-02-16,,118,,ONGOING,2013-04-28
CDISCPILOT01,AE,CDISC009,4,4,HEART RATE IRREGULAR,,,HEART RATE IRREGULAR,HEART RATE IRREGULAR,,,,,,,,,MILD,N,DOSE NOT CHANGED,POSSIBLY RELATED,RECOVERED/RESOLVED,N,N,N,N,N,N,N,TREATMENT,2013-03-16,2013-03-16,146,146,,
CDISCPILOT01,AE,CDISC011,1,1,DIZZINESS,,,DIZZINESS,DIZZINESS,,,,,,,,,MILD,N,DOSE NOT CHANGED,POSSIBLY RELATED,RECOVERED/RESOLVED,N,N,N,N,N,N,N,TREATMENT,2012-12-18,2012-12-18,12,12,,
CDISCPILOT01,AE,CDISC011,2,2,INJECTION SITE REACTION,,,INJECTION SITE REACTION,INJECTION SITE REACTION,,,,,,,,,MILD,N,DOSE NOT CHANGED,RELATED,RECOVERED/RESOLVED,N,N,N,N,N,N,N,TREATMENT,2013-01-12,2013-01-12,37,37,,
CDISCPILOT01,AE,CDISC011,3,3,DIZZINESS,,,DIZZINESS,DIZZINESS,,,,,,,,,MILD,N,DOSE NOT CHANGED,POSSIBLY RELATED,RECOVERED/RESOLVED,N,N,N,N,N,N,N,TREATMENT,2013-02-02,2013-02-02,58,58,,
CDISCPILOT01,AE,CDISC011,4,4,INJECTION SITE REACTION,,,INJECTION SITE REACTION,INJECTION SITE REACTION,,,,,,,,,MILD,N,DOSE NOT CHANGED,RELATED,RECOVERED/RESOLVED,N,N,N,N,N,N,N,TREATMENT,2013-04-10,2013-06-05,125,181,,
CDISCPILOT01,AE,CDISC013,1,1,MYOCARDIAL INFARCTION,,,MYOCARDIAL INFARCTION,MYOCARDIAL INFARCTION,,,,,,,,,SEVERE,Y,DRUG WITHDRAWN,POSSIBLY RELATED,FATAL,N,N,N,Y,Y,Y,N,TREATMENT,2013-08-02,2013-08-02,12,12,,
CDISCPILOT01,AE,CDISC014,1,1,INJECTION SITE REACTION,,,INJECTION SITE REACTION,INJECTION SITE REACTION,,,,,,,,,MODERATE,N,DOSE NOT CHANGED,RELATED,RECOVERED/RESOLVED,N,N,N,N,N,N,N,TREATMENT,2013-04-16,2013-05-02,14,30,,
CDISCPILOT01,AE,CDISC014,2,2,NASOPHARYNGITIS,,,NASOPHARYNGITIS,NASOPHARYNGITIS,,,,,,,,,MODERATE,N,DRUG WITHDRAWN,NOT RELATED,NOT RECOVERED/NOT RESOLVED,N,N,N,N,N,N,N,TREATMENT,2013-04-27,,25,,ONGOING,2013-09-18
CDISCPILOT01,AE,CDISC016,1,1,PARAESTHESIA ORAL,,,PARAESTHESIA ORAL,PARAESTHESIA ORAL,,,,,,,,,MILD,N,DOSE NOT CHANGED,POSSIBLY RELATED,NOT RECOVERED/NOT RESOLVED,N,N,N,N,N,N,N,TREATMENT,2013-04-11,,9,,ONGOING,2013-09-22
CDISCPILOT01,AE,CDISC016,2,2,NASOPHARYNGITIS,,,NASOPHARYNGITIS,NASOPHARYNGITIS,,,,,,,,,SEVERE,N,DOSE NOT CHANGED,NOT RELATED,RECOVERED/RESOLVED,N,N,N,N,N,N,N,TREATMENT,2013-04-28,2013-05-11,26,39,,
CDISCPILOT01,AE,CDISC016,3,3,SUPRAVENTRICULAR EXTRASYSTOLES,,,SUPRAVENTRICULAR EXTRASYSTOLES,SUPRAVENTRICULAR EXTRASYSTOLES,,,,,,,,,MILD,N,DOSE NOT CHANGED,POSSIBLY RELATED,RECOVERED/RESOLVED,N,N,N,N,N,N,N,TREATMENT,2013-04-29,2013-05-15,27,43,,
CDISCPILOT01,AE,CDISC016,4,4,RASH PRURITIC,,,RASH PRURITIC,RASH PRURITIC,,,,,,,,,MODERATE,N,DOSE NOT CHANGED,RELATED,RECOVERED/RESOLVED,N,N,N,N,N,N,N,TREATMENT,2013-05-27,2013-05-31,55,59,,
CDISCPILOT01,AE,CDISC016,5,5,VENTRICULAR EXTRASYSTOLES,,,VENTRICULAR EXTRASYSTOLES,VENTRICULAR EXTRASYSTOLES,,,,,,,,,MODERATE,N,DOSE NOT CHANGED,RELATED,RECOVERED/RESOLVED,N,N,N,N,N,N,N,TREATMENT,2013-05-28,2013-06-01,56,60,,
CDISCPILOT01,AE,CDISC016,6,6,CONJUNCTIVAL HAEMORRHAGE,,,CONJUNCTIVAL HAEMORRHAGE,CONJUNCTIVAL HAEMORRHAGE,,,,,,,,,MODERATE,N,DRUG WITHDRAWN,UNLIKELY RELATED,NOT RECOVERED/NOT RESOLVED,N,N,N,N,N,N,N,TREATMENT,2013-05-30,,58,,ONGOING,2013-09-22
CDISCPILOT01,AE,CDISC016,7,7,CERUMEN IMPACTION,,,CERUMEN IMPACTION,CERUMEN IMPACTION,,,,,,,,,MILD,N,DOSE NOT CHANGED,NOT RELATED,NOT RECOVERED/NOT RESOLVED,N,N,N,N,N,N,N,TREATMENT,2013-06-01,,60,,ONGOING,2013-09-22
CDISCPILOT01,AE,CDISC017,1,1,FALL,,,FALL,FALL,,,,,,,,,MILD,N,DOSE NOT CHANGED,UNLIKELY RELATED,RECOVERED/RESOLVED,N,N,N,N,N,N,N,TREATMENT,2013-10-09,2013-10-09,19,19,,
CDISCPILOT01,AE,CDISC017,2,2,BALANCE DISORDER,,,BALANCE DISORDER,BALANCE DISORDER,,,,,,,,,MODERATE,N,DOSE NOT CHANGED,POSSIBLY RELATED,RECOVERED/RESOLVED,N,N,N,N,N,N,N,TREATMENT,2013-10-09,2013-11-15,19,56,,
CDISCPILOT01,AE,CDISC017,3,3,CONTUSION,,,CONTUSION,CONTUSION,,,,,,,,,MODERATE,N,DOSE NOT CHANGED,UNLIKELY RELATED,RECOVERED/RESOLVED,N,N,N,N,N,N,N,TREATMENT,2013-10-15,2013-11-02,25,43,,
CDISCPILOT01,AE,CDISC017,4,4,COORDINATION ABNORMAL,,,COORDINATION ABNORMAL,COORDINATION ABNORMAL,,,,,,,,,MILD,N,DOSE NOT CHANGED,POSSIBLY RELATED,RECOVERED/RESOLVED,N,N,N,N,N,N,N,TREATMENT,2013-11-15,2013-11-15,56,56,,
CDISCPILOT01,AE,CDISC017,5,5,INJECTION SITE REACTION,,,INJECTION SITE REACTION,INJECTION SITE REACTION,,,,,,,,,MODERATE,N,DRUG WITHDRAWN,RELATED,RECOVERED/RESOLVED,N,N,N,N,N,N,N,TREATMENT,2013-12-29,2014-02-19,100,152,,
CDISCPILOT01,AE,CDISC018,1,1,BACK PAIN,,,BACK PAIN,BACK PAIN,,,,,,,,,MILD,N,DOSE NOT CHANGED,NOT RELATED,RECOVERED/RESOLVED,N,N,N,N,N,N,N,TREATMENT,2012-12-18,2012-12-18,2,2,,
CDISCPILOT01,AE,CDISC018,2,2,NAUSEA,,,NAUSEA,NAUSEA,,,,,,,,,MODERATE,N,DOSE NOT CHANGED,UNLIKELY RELATED,RECOVERED/RESOLVED,N,N,N,N,N,N,N,TREATMENT,2012-12-26,2012-12-26,10,10,,
CDISCPILOT01,AE,CDISC018,3,3,AMNESIA,,,AMNESIA,AMNESIA,,,,,,,,,MILD,N,DOSE NOT CHANGED,NOT RELATED,RECOVERED/RESOLVED,N,N,N,N,N,N,N,TREATMENT,2013-01-01,2013-01-19,16,34,,
CDISCPILOT01,AE,CDISC018,4,4,NAUSEA,,,NAUSEA,NAUSEA,,,,,,,,,MODERATE,N,DOSE NOT CHANGED,POSSIBLY RELATED,RECOVERED/RESOLVED,N,N,N,N,N,N,N,TREATMENT,2013-01-03,2013-01-09,18,24,,
CDISCPILOT01,AE,CDISC018,5,5,LETHARGY,,,LETHARGY,LETHARGY,,,,,,,,,MODERATE,N,DOSE NOT CHANGED,POSSIBLY RELATED,RECOVERED/RESOLVED,N,N,N,N,N,N,N,TREATMENT,2013-01-05,2013-01-05,20,20,,
CDISCPILOT01,AE,CDISC018,6,6,NAUSEA,,,NAUSEA,NAUSEA,,,,,,,,,MODERATE,N,DOSE NOT CHANGED,POSSIBLY RELATED,RECOVERED/RESOLVED,N,N,N,N,N,N,N,TREATMENT,2013-01-16,2013-01-16,31,31,,
CDISCPILOT01,AE,CDISC018,7,7,NAUSEA,,,NAUSEA,NAUSEA,,,,,,,,,SEVERE,N,DOSE NOT CHANGED,RELATED,RECOVERED/RESOLVED,N,N,N,N,N,N,N,TREATMENT,2013-01-21,2013-01-24,36,39,,
CDISCPILOT01,AE,CDISC018,8,8,INJECTION SITE REACTION,,,INJECTION SITE REACTION,INJECTION SITE REACTION,,,,,,,,,MODERATE,N,DOSE NOT CHANGED,RELATED,RECOVERED/RESOLVED,N,N,N,N,N,N,N,TREATMENT,2013-01-27,2013-01-28,42,43,,
CDISCPILOT01,AE,CDISC018,9,9,DECREASED APPETITE,,,DECREASED APPETITE,DECREASED APPETITE,,,,,,,,,MODERATE,N,DOSE NOT CHANGED,POSSIBLY RELATED,RECOVERED/RESOLVED,N,N,N,N,N,N,N,TREATMENT,2013-02-04,2013-02-25,50,71,,
CDISCPILOT01,AE,CDISC018,10,10,NAUSEA,,,NAUSEA,NAUSEA,,,,,,,,,MODERATE,N,DOSE NOT CHANGED,POSSIBLY RELATED,RECOVERED/RESOLVED,N,N,N,N,N,N,N,TREATMENT,2013-02-04,2013-02-25,50,71,,
