STUDYID,DOMAIN,USUBJID,CMSEQ,CMTRT,CMDECOD,CMCAT,CMSTDTC,CMSTDY,CMENDTC,CMENDY
CDISCPILOT01,CM,CDISC001,1,VALACICLOVIR 500 MG,"CMDECOD
VALACICLOVIR",MEDICATION,2018-02-20,1,,
CDISCPILOT01,CM,CDISC001,2,G-CSF 480 MCG,CMDECOD GRANULOCYTE COLONY STIMULATING FACTOR,MEDICATION,2018-02-27,8,2018-03-03,12
CDISCPILOT01,CM,CDISC001,3,	CIPROFLOXACIN 500 MG,CIPROFLOXACIN,MEDICATION,	2018-04-05,45,2018-05-18,88
