{2 items
"datasets":[1 item
0:{5 items
"filename":"mh.xpt"
"label":"Medical History"
"domain":"MH"
"variables":[10 items
0:{4 items
"name":"STUDYID"
"label":"Study Identifier"
"type":"Char"
"length":12
}
1:{4 items
"name":"DOMAIN"
"label":"Domain Abbreviation"
"type":"Char"
"length":2
}
2:{4 items
"name":"USUBJID"
"label":"Unique Subject Identifier"
"type":"Char"
"length":8
}
3:{4 items
"name":"MHSEQ"
"label":"Sequence Number"
"type":"Num"
"length":8
}
4:{4 items
"name":"MHTERM"
"label":"Reported Term for the Medical History"
"type":"Char"
"length":19
}
5:{4 items
"name":"MHEVDTYP"
"label":"Medical History Event Date Type"
"type":"Char"
"length":13
}
6:{4 items
"name":"MHSCAT"
"label":"Subcategory for Medical History"
"type":"Char"
"length":200
}
7:{4 items
"name":"MHBODSYS"
"label":"Body System or Organ Class"
"type":"Char"
"length":201
}
8:{4 items
"name":"MHSTDTC"
"label":"Start Date/Time of Medical History Event"
"type":"Char"
"length":10
}
9:{4 items
"name":"MHSTDY"
"label":"Study Day of Start of Observation"
"type":"Num"
"length":8
}
]
"records":{10 items
"STUDYID":[17 items
0:"CDISCPILOT01"
1:"CDISCPILOT01"
2:"CDISCPILOT01"
3:"CDISCPILOT01"
4:"CDISCPILOT01"
5:"CDISCPILOT01"
6:"CDISCPILOT01"
7:"CDISCPILOT01"
8:"CDISCPILOT01"
9:"CDISCPILOT01"
10:"CDISCPILOT01"
11:"CDISCPILOT01"
12:"CDISCPILOT01"
13:"CDISCPILOT01"
14:"CDISCPILOT01"
15:"CDISCPILOT01"
16:"CDISCPILOT01"
]
"DOMAIN":[17 items
0:"MH"
1:"MH"
2:"MH"
3:"MH"
4:"MH"
5:"MH"
6:"MH"
7:"MH"
8:"MH"
9:"MH"
10:"MH"
11:"MH"
12:"MH"
13:"MH"
14:"MH"
15:"MH"
16:"MH"
]
"USUBJID":[17 items
0:"CDISC001"
1:"CDISC002"
2:"CDISC003"
3:"CDISC004"
4:"CDISC005"
5:"CDISC006"
6:"CDISC007"
7:"CDISC008"
8:"CDISC009"
9:"CDISC010"
10:"CDISC011"
11:"CDISC012"
12:"CDISC013"
13:"CDISC014"
14:"CDISC016"
15:"CDISC017"
16:"CDISC018"
]
"MHSEQ":[17 items
0:1
1:1
2:1
3:1
4:1
5:1
6:1
7:1
8:1
9:1
10:1
11:1
12:1
13:1
14:1
15:1
16:1
]
"MHTERM":[17 items
0:"ALZHEIMER'S DISEASE"
1:"ALZHEIMER'S DISEASE"
2:"ALZHEIMER'S DISEASE"
3:"ALZHEIMER'S DISEASE"
4:"ALZHEIMER'S DISEASE"
5:"ALZHEIMER'S DISEASE"
6:"ALZHEIMER'S DISEASE"
7:"ALZHEIMER'S DISEASE"
8:"ALZHEIMER'S DISEASE"
9:"ALZHEIMER'S DISEASE"
10:"ALZHEIMER'S DISEASE"
11:"ALZHEIMER'S DISEASE"
12:"ALZHEIMER'S DISEASE"
13:"ALZHEIMER'S DISEASE"
14:"ALZHEIMER'S DISEASE"
15:"ALZHEIMER'S DISEASE"
16:"ALZHEIMER'S DISEASE"
]
"MHEVDTYP":[17 items
0:"SYMPTOM ONSET"
1:"SYMPTOM ONSET"
2:"SYMPTOM ONSET"
3:"SYMPTOM ONSET"
4:"SYMPTOM ONSET"
5:"SYMPTOM ONSET"
6:"SYMPTOM ONSET"
7:"SYMPTOM ONSET"
8:"SYMPTOM ONSET"
9:"SYMPTOM ONSET"
10:"SYMPTOM ONSET"
11:"SYMPTOM ONSET"
12:"SYMPTOM ONSET"
13:"SYMPTOM ONSET"
14:"SYMPTOM ONSET"
15:"SYMPTOM ONSET"
16:"SYMPTOM ONSET"
]
"MHSCAT":[17 items
0:""
1:""
2:"GENERAL MEDICAL HISTORY"
3:"FAMILY HISTORY"
4:""
5:""
6:""
7:"FAMILY HISTORY"
8:""
9:""
10:"FAMILY HISTORY"
11:""
12:"GENERAL MEDICAL HISTORY"
13:""
14:""
15:""
16:"general medical history"
]
"MHBODSYS":[17 items
0:"Neurodegenerative Diseases"
1:"Neurodegenerative Diseases"
2:"Neurodegenerative Diseases"
3:"Neurodegenerative Diseases"
4:"Neurodegenerative Diseases"
5:"Neurodegenerative Diseases"
6:"Neurodegenerative Diseases"
7:"Neurodegenerative Diseases"
8:"Neurodegenerative Diseases"
9:"Neurodegenerative Diseases"
10:"Neurodegenerative Diseases"
11:"Neurodegenerative Diseases"
12:"Neurodegenerative Diseases"
13:"Neurodegenerative Diseases"
14:"Neurodegenerative Diseases"
15:"Neurodegenerative Diseases"
16:"Neurodegenerative Diseases"
]
"MHSTDTC":[17 items
0:"2004-05-28"
1:"2010-03-19"
2:"2007-02-09"
3:"2010-11-05"
4:"2006-08-20"
5:"2008-06-17"
6:"2008-05-21"
7:"2012-11-11"
8:"2008-09-02"
9:"2012-09-08"
10:"2002-12-01"
11:"2009-03-16"
12:"2011-07-19"
13:"2011-07-25"
14:"2011-04-29"
15:"2008-08-20"
16:"2010-05-03"
]
"MHSTDY":[17 items
0:-3108
1:-972
2:-2393
3:-1068
4:-2360
5:-1736
6:-1690
7:-546
8:-1511
9:-378
10:-3659
11:-1632
12:-734
13:-618
14:-705
15:-1858
16:-959
]
}
}
]
"codelists":[]0 items
}