STUDYID,DOMAIN,USUBJID,SUBJID,VISITNUM,VISIT,VISITDY,EPOCH,SVSTDTC,SVENDTC,SVSTDY,SVENDY,SVUPDES
CDISCPILOT01,SV,CDISC001,1,1,SCREENING,-28,SCREENING,2021-04-27,2021-04-27,-28,-28,Evaluation of AE
CDISCPILOT01,SV,CDISC001,1,2,SCREENING,1,SCREENING,2021-05-01,2021-05-01,1,1,Evaluation of AE
CDISCPILOT01,SV,CDISC001,1,3,DAY 1,3,SCREENING,2021-05-01,2021-05-01,1,1,Evaluation of AE
CDISCPILOT01,SV,CDISC001,1,4,DAY 4,6,7,8,9,10,11,Evaluation of AE
