STUDYID,DOMAIN,USUBJID,CMSEQ,CMTRT,CMINDC,CMDOSE,CMDOSU,CMDOSTOT,CMDOSFRQ,CMROUTE,EPOCH,CMSTDTC,CMENDTC,CMSTDY,CMENDY,CMENRTPT,CMENTPT
CDISCPILOT01,CM,CDISC001,2,ASPIRIN,PROPHYLAXIS OR NON-THERAPEUTIC USE,1,TABLET,0,PRN,ORAL,SCREENING,2012-08,,,,ONGOING,2013-05-20
CDISCPILOT01,CM,CDISC001,6,FEOSOL,PROPHYLAXIS OR NON-THERAPEUTIC USE,325,mg,1,Q6H,ORAL,TREATMENT,2013-04-29,,151,,ONGOING,2013-05-20
