[
  {
    "filename": "ae.xpt",
    "label": "Adverse Events",
    "domain": "AE",
    "variables": [
      {
        "name": "STUDYID",
        "label": "Study Identifier",
        "type": "Char",
        "length": 12
      },
      {
        "name": "DOMAIN",
        "label": "Domain Abbreviation",
        "type": "Char",
        "length": 2
      },
      {
        "name": "USUBJID",
        "label": "Unique Subject Identifier",
        "type": "Char",
        "length": 8
      },
      {
        "name": "AESEQ",
        "label": "Sequence Number",
        "type": "Num",
        "length": 8
      },
      {
        "name": "AELNKID",
        "label": "Link ID",
        "type": "Char",
        "length": 50
      },
      {
        "name": "AETERM",
        "label": "Reported Term for the Adverse Event",
        "type": "Char",
        "length": 200
      },
      {
        "name": "AELLT",
        "label": "Lowest Level Term",
        "type": "Char",
        "length": 1
      },
      {
        "name": "AELLTCD",
        "label": "Lowest Level Term Code",
        "type": "Char",
        "length": 1
      },
      {
        "name": "AEDECOD",
        "label": "Dictionary-Derived Term",
        "type": "Char",
        "length": 1
      },
      {
        "name": "AEPTCD",
        "label": "Preferred Term Code",
        "type": "Char",
        "length": 1
      },
      {
        "name": "AEHLT",
        "label": "High Level Term",
        "type": "Char",
        "length": 1
      },
      {
        "name": "AEHLTCD",
        "label": "High Level Term Code",
        "type": "Char",
        "length": 1
      },
      {
        "name": "AEHLGT",
        "label": "High Level Group Term",
        "type": "Char",
        "length": 1
      },
      {
        "name": "AEHLGTCD",
        "label": "High Level Group Term Code",
        "type": "Char",
        "length": 1
      },
      {
        "name": "AESCAT",
        "label": "Subategory",
        "type": "Char",
        "length": 50
      },
      {
        "name": "AEBODSYS",
        "label": "Body System or Organ Class",
        "type": "Char",
        "length": 1
      },
      {
        "name": "AEBDSYCD",
        "label": "Body System or Organ Class Code",
        "type": "Char",
        "length": 1
      },
      {
        "name": "AESOC",
        "label": "Primary System Organ Class",
        "type": "Char",
        "length": 1
      },
      {
        "name": "AESOCCD",
        "label": "Primary System Organ Class Code",
        "type": "Char",
        "length": 1
      },
      {
        "name": "AESEV",
        "label": "Severity/Intensity",
        "type": "Char",
        "length": 8
      },
      {
        "name": "AESER",
        "label": "Serious Event",
        "type": "Char",
        "length": 1
      },
      {
        "name": "AEACN",
        "label": "Action Taken with Study Treatment",
        "type": "Char",
        "length": 16
      },
      {
        "name": "AEREL",
        "label": "Causality",
        "type": "Char",
        "length": 16
      },
      {
        "name": "AEOUT",
        "label": "Outcome of Adverse Event",
        "type": "Char",
        "length": 32
      },
      {
        "name": "AESCAN",
        "label": "Involves Cancer",
        "type": "Char",
        "length": 1
      },
      {
        "name": "AESCONG",
        "label": "Congenital Anomaly or Birth Defect",
        "type": "Char",
        "length": 1
      },
      {
        "name": "AESDISAB",
        "label": "Persist or Signif Disability/Incapacity",
        "type": "Char",
        "length": 1
      },
      {
        "name": "AESDTH",
        "label": "Results in Death",
        "type": "Char",
        "length": 1
      },
      {
        "name": "AESHOSP",
        "label": "Requires or Prolongs Hospitalization",
        "type": "Char",
        "length": 1
      },
      {
        "name": "AESLIFE",
        "label": "Is Life Threatening",
        "type": "Char",
        "length": 1
      },
      {
        "name": "AESOD",
        "label": "Occurred with Overdose",
        "type": "Char",
        "length": 1
      },
      {
        "name": "EPOCH",
        "label": "Epoch",
        "type": "Char",
        "length": 9
      },
      {
        "name": "AESTDTC",
        "label": "Start Date/Time of Adverse Event",
        "type": "Char",
        "length": 10
      },
      {
        "name": "AEENDTC",
        "label": "End Date/Time of Adverse Event",
        "type": "Char",
        "length": 10
      },
      {
        "name": "AESTDY",
        "label": "Study Day of Start of Adverse Event",
        "type": "Num",
        "length": 8
      },
      {
        "name": "AEENDY",
        "label": "Study Day of End of Adverse Event",
        "type": "Num",
        "length": 8
      },
      {
        "name": "AEENRTPT",
        "label": "End Relative to Reference Time Point",
        "type": "Char",
        "length": 7
      },
      {
        "name": "AEENTPT",
        "label": "End Reference Time Point",
        "type": "Char",
        "length": 10
      }
    ],
    "records": {
      "STUDYID": [
        "CDISCPILOT01",
        "CDISCPILOT01",
        "CDISCPILOT01",
        "CDISCPILOT01",
        "CDISCPILOT01",
        "CDISCPILOT01",
        "CDISCPILOT01",
        "CDISCPILOT01",
        "CDISCPILOT01",
        "CDISCPILOT01",
        "CDISCPILOT01",
        "CDISCPILOT01",
        "CDISCPILOT01",
        "CDISCPILOT01"
      ],
      "DOMAIN": [
        "AE",
        "AE",
        "AE",
        "AE",
        "AE",
        "AE",
        "AE",
        "AE",
        "AE",
        "AE",
        "AE",
        "AE",
        "AE",
        "AE"
      ],
      "USUBJID": [
        "CDISC005",
        "CDISC005",
        "CDISC005",
        "CDISC005",
        "CDISC005",
        "CDISC005",
        "CDISC005",
        "CDISC013",
        "CDISC016",
        "CDISC016",
        "CDISC016",
        "CDISC016",
        "CDISC016",
        "CDISC016"
      ],
      "AESEQ": [
        1,
        2,
        3,
        4,
        5,
        6,
        7,
        1,
        1,
        2,
        3,
        4,
        5,
        6
      ],
      "AELNKID": [
        "1",
        "2",
        "4",
        "5",
        "7",
        "8",
        "9",
        "1",
        "1",
        "2",
        "3",
        "4",
        "5",
        "6"
      ],
      "AETERM": [
        "INJECTION SITE REACTION",
        "INJECTION SITE REACTION",
        "INJECTION SITE REACTION",
        "INJECTION SITE REACTION",
        "CHEST DISCOMFORT",
        "HEADACHE",
        "COUGH",
        "MYOCARDIAL INFARCTION",
        "PARAESTHESIA ORAL",
        "NASOPHARYNGITIS",
        "SUPRAVENTRICULAR EXTRASYSTOLES",
        "RASH PRURITIC",
        "VENTRICULAR EXTRASYSTOLES",
        "CONJUNCTIVAL HAEMORRHAGE"
      ],
      "AELLT": [
        "",
        "",
        "",
        "",
        "",
        "",
        "",
        "",
        "",
        "",
        "",
        "",
        "",
        ""
      ],
      "AELLTCD": [
        "",
        "",
        "",
        "",
        "",
        "",
        "",
        "",
        "",
        "",
        "",
        "",
        "",
        ""
      ],
      "AEDECOD": [
        "INJECTION SITE REACTION",
        "INJECTION SITE REACTION",
        "INJECTION SITE REACTION",
        "INJECTION SITE REACTION",
        "CHEST DISCOMFORT",
        "HEADACHE",
        "COUGH",
        "MYOCARDIAL INFARCTION",
        "PARAESTHESIA ORAL",
        "NASOPHARYNGITIS",
        "SUPRAVENTRICULAR EXTRASYSTOLES",
        "RASH PRURITIC",
        "VENTRICULAR EXTRASYSTOLES",
        ""
      ],
      "AEPTCD": [
        "",
        "",
        "",
        "",
        "",
        "",
        "",
        "",
        "",
        "",
        "",
        "",
        "",
        ""
      ],
      "AEHLT": [
        "",
        "",
        "",
        "",
        "",
        "",
        "",
        "",
        "",
        "",
        "",
        "",
        "",
        ""
      ],
      "AEHLTCD": [
        "",
        "",
        "",
        "",
        "",
        "",
        "",
        "",
        "",
        "",
        "",
        "",
        "",
        ""
      ],
      "AEHLGT": [
        "",
        "",
        "",
        "",
        "",
        "",
        "",
        "",
        "",
        "",
        "",
        "",
        "",
        ""
      ],
      "AEHLGTCD": [
        "",
        "",
        "",
        "",
        "",
        "",
        "",
        "",
        "",
        "",
        "",
        "",
        "",
        ""
      ],
      "AESCAT": [
        "",
        "AESI",
        "",
        "HEADACHE",
        "",
        "INJECTION SITE REACTION",
        "",
        "",
        "",
        "AESI",
        "",
        "AESI",
        "",
        "CONJUNCTIVAL HAEMORRHAGE"
      ],
      "AEBODSYS": [
        "",
        "",
        "",
        "",
        "",
        "",
        "",
        "",
        "",
        "",
        "",
        "",
        "",
        ""
      ],
      "AEBDSYCD": [
        "",
        "",
        "",
        "",
        "",
        "",
        "",
        "",
        "",
        "",
        "",
        "",
        "",
        ""
      ],
      "AESOC": [
        "",
        "",
        "",
        "",
        "",
        "",
        "",
        "",
        "",
        "",
        "",
        "",
        "",
        ""
      ],
      "AESOCCD": [
        "",
        "",
        "",
        "",
        "",
        "",
        "",
        "",
        "",
        "",
        "",
        "",
        "",
        ""
      ],
      "AESEV": [
        "MILD",
        "MILD",
        "MILD",
        "MILD",
        "MILD",
        "MILD",
        "MODERATE",
        "SEVERE",
        "MILD",
        "SEVERE",
        "MILD",
        "MODERATE",
        "MODERATE",
        "MODERATE"
      ],
      "AESER": [
        "N",
        "N",
        "N",
        "N",
        "N",
        "N",
        "N",
        "Y",
        "N",
        "N",
        "N",
        "N",
        "N",
        "N"
      ],
      "AEACN": [
        "DOSE NOT CHANGED",
        "DOSE NOT CHANGED",
        "DOSE NOT CHANGED",
        "DOSE NOT CHANGED",
        "DOSE NOT CHANGED",
        "DOSE NOT CHANGED",
        "DOSE NOT CHANGED",
        "DRUG WITHDRAWN",
        "DOSE NOT CHANGED",
        "DOSE NOT CHANGED",
        "DOSE NOT CHANGED",
        "DOSE NOT CHANGED",
        "DOSE NOT CHANGED",
        "DRUG WITHDRAWN"
      ],
      "AEREL": [
        "RELATED",
        "POSSIBLY RELATED",
        "POSSIBLY RELATED",
        "POSSIBLY RELATED",
        "NOT RELATED",
        "NOT RELATED",
        "NOT RELATED",
        "POSSIBLY RELATED",
        "POSSIBLY RELATED",
        "NOT RELATED",
        "POSSIBLY RELATED",
        "RELATED",
        "RELATED",
        "UNLIKELY RELATED"
      ],
      "AEOUT": [
        "RECOVERED/RESOLVED",
        "NOT RECOVERED/NOT RESOLVED",
        "RECOVERED/RESOLVED",
        "NOT RECOVERED/NOT RESOLVED",
        "RECOVERED/RESOLVED",
        "RECOVERED/RESOLVED",
        "RECOVERED/RESOLVED",
        "FATAL",
        "NOT RECOVERED/NOT RESOLVED",
        "RECOVERED/RESOLVED",
        "RECOVERED/RESOLVED",
        "RECOVERED/RESOLVED",
        "RECOVERED/RESOLVED",
        "NOT RECOVERED/NOT RESOLVED"
      ],
      "AESCAN": [
        "N",
        "N",
        "N",
        "N",
        "N",
        "N",
        "N",
        "N",
        "N",
        "N",
        "N",
        "N",
        "N",
        "N"
      ],
      "AESCONG": [
        "N",
        "N",
        "N",
        "N",
        "N",
        "N",
        "N",
        "N",
        "N",
        "N",
        "N",
        "N",
        "N",
        "N"
      ],
      "AESDISAB": [
        "N",
        "N",
        "N",
        "N",
        "N",
        "N",
        "N",
        "N",
        "N",
        "N",
        "N",
        "N",
        "N",
        "N"
      ],
      "AESDTH": [
        "N",
        "N",
        "N",
        "N",
        "N",
        "N",
        "N",
        "Y",
        "N",
        "N",
        "N",
        "N",
        "N",
        "N"
      ],
      "AESHOSP": [
        "N",
        "N",
        "N",
        "N",
        "N",
        "N",
        "N",
        "Y",
        "N",
        "N",
        "N",
        "N",
        "N",
        "N"
      ],
      "AESLIFE": [
        "N",
        "N",
        "N",
        "N",
        "N",
        "N",
        "N",
        "Y",
        "N",
        "N",
        "N",
        "N",
        "N",
        "N"
      ],
      "AESOD": [
        "N",
        "N",
        "N",
        "N",
        "N",
        "N",
        "N",
        "N",
        "N",
        "N",
        "N",
        "N",
        "N",
        "N"
      ],
      "EPOCH": [
        "TREATMENT",
        "TREATMENT",
        "TREATMENT",
        "TREATMENT",
        "TREATMENT",
        "TREATMENT",
        "TREATMENT",
        "TREATMENT",
        "TREATMENT",
        "TREATMENT",
        "TREATMENT",
        "TREATMENT",
        "TREATMENT",
        "TREATMENT"
      ],
      "AESTDTC": [
        "2013-02-07",
        "2013-03-23",
        "2013-03-23",
        "2013-04-12",
        "2013-06-24",
        "2013-06-24",
        "2013-07-17",
        "2013-08-02",
        "2013-04-11",
        "2013-04-28",
        "2013-04-29",
        "2013-05-27",
        "2013-05-28",
        "2013-05-30"
      ],
      "AEENDTC": [
        "2013-02-07",
        "",
        "2013-03-26",
        "",
        "2013-06-24",
        "2013-06-24",
        "2013-07-26",
        "2013-08-02",
        "",
        "2013-05-11",
        "2013-05-15",
        "2013-05-31",
        "2013-06-01",
        ""
      ],
      "AESTDY": [
        4,
        48,
        48,
        68,
        141,
        141,
        164,
        12,
        9,
        26,
        27,
        55,
        56,
        58
      ],
      "AEENDY": [
        4,
        null,
        51,
        null,
        141,
        141,
        173,
        12,
        null,
        39,
        43,
        59,
        60,
        null
      ],
      "AEENRTPT": [
        "",
        "ONGOING",
        "",
        "ONGOING",
        "",
        "",
        "",
        "",
        "ONGOING",
        "",
        "",
        "",
        "",
        "ONGOING"
      ],
      "AEENTPT": [
        "",
        "2013-08-06",
        "",
        "2013-08-06",
        "",
        "",
        "",
        "",
        "2013-09-22",
        "",
        "",
        "",
        "",
        "2013-09-22"
      ]
    }
  }
]