STUDYID,DOMAIN,USUBJID,CMSEQ,CMTRT,CMPRESP,CMOCCUR,CMSTAT
CDISCPILOT01,CM,CDISC001,1,ASPIRIN,,,
CDISCPILOT01,CM,CDISC001,2,METAMUCIL,Y,,NOT DONE
CDISCPILOT01,CM,CDISC001,3,"HYDROCORTISONE, TOPICAL",Y,N,
