{
  "rule": {
    "Check": {
      "all": [
        {
          "name": "--PRESP",
          "operator": "non_empty"
        },
        {
          "name": "--PRESP",
          "operator": "not_equal_to",
          "value": "Y"
        }
      ]
    },
    "Core": {
      "Id": "CDISC.SDTMIG.CG0085",
      "Version": "1",
      "Status": "Draft"
    },
    "Description": "Raise an error when --PRESP does not equal 'Y' or is not empty.",
    "Outcome": {
      "Message": "--PRESP does not equal 'Y' or is not empty.",
      "Output_Variables": [
        "--PRESP"
      ]
    },
    "Sensitivity": "Record",
    "Executability": "Fully Executable",
    "Authorities": [
      {
        "Organization": "CDISC",
        "Standards": [
          {
            "Name": "SDTMIG",
            "Version": "3.4",
            "References": [
              {
                "Origin": "SDTM and SDTMIG Conformance Rules",
                "Version": "2.0",
                "Citations": [
                  {
                    "Document": "Model v2.0",
                    "Item": "--PRESP",
                    "Section": "Events|Interventions",
                    "Cited_Guidance": "Events[--PRESP][Value is \"Y\" for prespecified events, null for spontaneously reported events.] Interventions[--PRESP][Values should be \"Y\" or null.]"
                  }
                ],
                "Rule_Identifier": {
                  "Id": "CG0085",
                  "Version": "1"
                }
              }
            ]
          },
          {
            "Name": "SDTMIG",
            "Version": "3.3",
            "References": [
              {
                "Origin": "SDTM and SDTMIG Conformance Rules",
                "Version": "2.0",
                "Citations": [
                  {
                    "Document": "Model v1.7",
                    "Item": "",
                    "Section": "Model v1.7[2.2.1 (Interventions)]|Model v1.7[2.2.2 (Events)]",
                    "Cited_Guidance": "Model v1.7[2.2.1 (Interventions )][--PRESP; Values should be \"Y\" or null.] | Model v1.7[2.2.2 (Events)][--PRESP; Values should be \"Y\" or null.]"
                  }
                ],
                "Rule_Identifier": {
                  "Id": "CG0085",
                  "Version": "1"
                }
              }
            ]
          },
          {
            "Name": "SDTMIG",
            "Version": "3.2",
            "References": [
              {
                "Origin": "SDTM and SDTMIG Conformance Rules",
                "Version": "2.0",
                "Citations": [
                  {
                    "Document": "Model v1.4",
                    "Item": "",
                    "Section": "Model v1.4[2.2.1 (Interventions)]|Model v1.4[2.2.2 (Events)]",
                    "Cited_Guidance": "Model v1.4[2.2.1 (Interventions )][--PRESP; Values should be \"Y\" or null.] |Model v1.4[2.2.2 (Events)][--PRESP; Values should be \"Y\" or null.]"
                  }
                ],
                "Rule_Identifier": {
                  "Id": "CG0085",
                  "Version": "1"
                }
              }
            ]
          }
        ]
      }
    ],
    "Scope": {
      "Classes": {
        "Include": [
          "EVENTS",
          "INTERVENTIONS"
        ]
      },
      "Domains": {
        "Exclude": [
          "DS",
          "DV",
          "EX"
        ]
      }
    },
    "Rule_Type": "Record Data"
  },
  "datasets": [
    {
      "filename": "ae.xpt",
      "label": "Adverse Events",
      "domain": "AE",
      "variables": [
        {
          "name": "STUDYID",
          "label": "Study Identifier",
          "type": "Char",
          "length": 12
        },
        {
          "name": "DOMAIN",
          "label": "Domain Abbreviation",
          "type": "Char",
          "length": 2
        },
        {
          "name": "USUBJID",
          "label": "Unique Subject Identifier",
          "type": "Char",
          "length": 8
        },
        {
          "name": "AESEQ",
          "label": "Sequence Number",
          "type": "Num",
          "length": 8
        },
        {
          "name": "AELNKID",
          "label": "Link ID",
          "type": "Char",
          "length": 50
        },
        {
          "name": "AETERM",
          "label": "Reported Term for the Adverse Event",
          "type": "Char",
          "length": 200
        },
        {
          "name": "AELLT",
          "label": "Lowest Level Term",
          "type": "Char",
          "length": 1
        },
        {
          "name": "AELLTCD",
          "label": "Lowest Level Term Code",
          "type": "Char",
          "length": 1
        },
        {
          "name": "AEDECOD",
          "label": "Dictionary-Derived Term",
          "type": "Char",
          "length": 1
        },
        {
          "name": "AEPTCD",
          "label": "Preferred Term Code",
          "type": "Char",
          "length": 1
        },
        {
          "name": "AEHLT",
          "label": "High Level Term",
          "type": "Char",
          "length": 1
        },
        {
          "name": "AEHLTCD",
          "label": "High Level Term Code",
          "type": "Char",
          "length": 1
        },
        {
          "name": "AEHLGT",
          "label": "High Level Group Term",
          "type": "Char",
          "length": 1
        },
        {
          "name": "AEHLGTCD",
          "label": "High Level Group Term Code",
          "type": "Char",
          "length": 1
        },
        {
          "name": "AEPRESP",
          "label": "Pre-Specified Adverse\r\nEvent",
          "type": "Char",
          "length": 1
        },
        {
          "name": "AEBODSYS",
          "label": "Body System or Organ Class",
          "type": "Char",
          "length": 1
        },
        {
          "name": "AEBDSYCD",
          "label": "Body System or Organ Class Code",
          "type": "Char",
          "length": 1
        },
        {
          "name": "AESOC",
          "label": "Primary System Organ Class",
          "type": "Char",
          "length": 1
        },
        {
          "name": "AESOCCD",
          "label": "Primary System Organ Class Code",
          "type": "Char",
          "length": 1
        },
        {
          "name": "AESEV",
          "label": "Severity/Intensity",
          "type": "Char",
          "length": 8
        },
        {
          "name": "AESER",
          "label": "Serious Event",
          "type": "Char",
          "length": 1
        },
        {
          "name": "AEACN",
          "label": "Action Taken with Study Treatment",
          "type": "Char",
          "length": 16
        },
        {
          "name": "AEREL",
          "label": "Causality",
          "type": "Char",
          "length": 16
        },
        {
          "name": "AEOUT",
          "label": "Outcome of Adverse Event",
          "type": "Char",
          "length": 32
        },
        {
          "name": "AESCAN",
          "label": "Involves Cancer",
          "type": "Char",
          "length": 1
        },
        {
          "name": "AESCONG",
          "label": "Congenital Anomaly or Birth Defect",
          "type": "Char",
          "length": 1
        },
        {
          "name": "AESDISAB",
          "label": "Persist or Signif Disability/Incapacity",
          "type": "Char",
          "length": 1
        },
        {
          "name": "AESDTH",
          "label": "Results in Death",
          "type": "Char",
          "length": 1
        },
        {
          "name": "AESHOSP",
          "label": "Requires or Prolongs Hospitalization",
          "type": "Char",
          "length": 1
        },
        {
          "name": "AESLIFE",
          "label": "Is Life Threatening",
          "type": "Char",
          "length": 1
        },
        {
          "name": "AESOD",
          "label": "Occurred with Overdose",
          "type": "Char",
          "length": 1
        },
        {
          "name": "EPOCH",
          "label": "Epoch",
          "type": "Char",
          "length": 9
        },
        {
          "name": "AESTDTC",
          "label": "Start Date/Time of Adverse Event",
          "type": "Char",
          "length": 10
        },
        {
          "name": "AEENDTC",
          "label": "End Date/Time of Adverse Event",
          "type": "Char",
          "length": 10
        },
        {
          "name": "AESTDY",
          "label": "Study Day of Start of Adverse Event",
          "type": "Num",
          "length": 8
        },
        {
          "name": "AEENDY",
          "label": "Study Day of End of Adverse Event",
          "type": "Num",
          "length": 8
        },
        {
          "name": "AEENRTPT",
          "label": "End Relative to Reference Time Point",
          "type": "Char",
          "length": 7
        },
        {
          "name": "AEENTPT",
          "label": "End Reference Time Point",
          "type": "Char",
          "length": 10
        }
      ],
      "records": {
        "STUDYID": [
          "CDISCPILOT01",
          "CDISCPILOT01",
          "CDISCPILOT01",
          "CDISCPILOT01",
          "CDISCPILOT01",
          "CDISCPILOT01",
          "CDISCPILOT01",
          "CDISCPILOT01",
          "CDISCPILOT01",
          "CDISCPILOT01",
          "CDISCPILOT01",
          "CDISCPILOT01",
          "CDISCPILOT01",
          "CDISCPILOT01",
          "CDISCPILOT01",
          "CDISCPILOT01",
          "CDISCPILOT01",
          "CDISCPILOT01"
        ],
        "DOMAIN": [
          "AE",
          "AE",
          "AE",
          "AE",
          "AE",
          "AE",
          "AE",
          "AE",
          "AE",
          "AE",
          "AE",
          "AE",
          "AE",
          "AE",
          "AE",
          "AE",
          "AE",
          "AE"
        ],
        "USUBJID": [
          "CDISC001",
          "CDISC001",
          "CDISC002",
          "CDISC002",
          "CDISC002",
          "CDISC003",
          "CDISC003",
          "CDISC003",
          "CDISC003",
          "CDISC003",
          "CDISC003",
          "CDISC003",
          "CDISC003",
          "CDISC005",
          "CDISC018",
          "CDISC018",
          "CDISC018",
          "CDISC018"
        ],
        "AESEQ": [
          1,
          2,
          1,
          2,
          3,
          11,
          12,
          13,
          14,
          15,
          16,
          17,
          18,
          7,
          7,
          8,
          9,
          10
        ],
        "AELNKID": [
          "1",
          "2",
          "1",
          "2",
          "3",
          "11",
          "12",
          "13",
          "14",
          "16",
          "17",
          "18",
          "19",
          "9",
          "7",
          "8",
          "9",
          "10"
        ],
        "AETERM": [
          "INJECTION SITE REACTION",
          "FATIGUE",
          "INJECTION SITE REACTION",
          "SHOULDER PAIN",
          "JOINT DISLOCATION",
          "CONTUSION",
          "HEADACHE",
          "EPISTAXIS",
          "INJECTION SITE REACTION",
          "RESPIRATORY TRACT CONGESTION",
          "RHINITIS",
          "FEELING ABNORMAL",
          "LIBIDO DECREASED",
          "COUGH",
          "NAUSEA",
          "INJECTION SITE REACTION",
          "DECREASED APPETITE",
          "NAUSEA"
        ],
        "AELLT": [
          "",
          "",
          "",
          "",
          "",
          "",
          "",
          "",
          "",
          "",
          "",
          "",
          "",
          "",
          "",
          "",
          "",
          ""
        ],
        "AELLTCD": [
          "",
          "",
          "",
          "",
          "",
          "",
          "",
          "",
          "",
          "",
          "",
          "",
          "",
          "",
          "",
          "",
          "",
          ""
        ],
        "AEDECOD": [
          "",
          "",
          "",
          "",
          "",
          "",
          "",
          "",
          "",
          "",
          "",
          "",
          "",
          "",
          "",
          "",
          "",
          ""
        ],
        "AEPTCD": [
          "",
          "",
          "",
          "",
          "",
          "",
          "",
          "",
          "",
          "",
          "",
          "",
          "",
          "",
          "",
          "",
          "",
          ""
        ],
        "AEHLT": [
          "",
          "",
          "",
          "",
          "",
          "",
          "",
          "",
          "",
          "",
          "",
          "",
          "",
          "",
          "",
          "",
          "",
          ""
        ],
        "AEHLTCD": [
          "",
          "",
          "",
          "",
          "",
          "",
          "",
          "",
          "",
          "",
          "",
          "",
          "",
          "",
          "",
          "",
          "",
          ""
        ],
        "AEHLGT": [
          "",
          "",
          "",
          "",
          "",
          "",
          "",
          "",
          "",
          "",
          "",
          "",
          "",
          "",
          "",
          "",
          "",
          ""
        ],
        "AEHLGTCD": [
          "",
          "",
          "",
          "",
          "",
          "",
          "",
          "",
          "",
          "",
          "",
          "",
          "",
          "",
          "",
          "",
          "",
          ""
        ],
        "AEPRESP": [
          "Y",
          "",
          "",
          "",
          "Y",
          "",
          "",
          "",
          "",
          "Y",
          "",
          "",
          "",
          "",
          "Y",
          "Y",
          "Y",
          ""
        ],
        "AEBODSYS": [
          "",
          "",
          "",
          "",
          "",
          "",
          "",
          "",
          "",
          "",
          "",
          "",
          "",
          "",
          "",
          "",
          "",
          ""
        ],
        "AEBDSYCD": [
          "",
          "",
          "",
          "",
          "",
          "",
          "",
          "",
          "",
          "",
          "",
          "",
          "",
          "",
          "",
          "",
          "",
          ""
        ],
        "AESOC": [
          "",
          "",
          "",
          "",
          "",
          "",
          "",
          "",
          "",
          "",
          "",
          "",
          "",
          "",
          "",
          "",
          "",
          ""
        ],
        "AESOCCD": [
          "",
          "",
          "",
          "",
          "",
          "",
          "",
          "",
          "",
          "",
          "",
          "",
          "",
          "",
          "",
          "",
          "",
          ""
        ],
        "AESEV": [
          "MODERATE",
          "MODERATE",
          "MILD",
          "MILD",
          "MODERATE",
          "MILD",
          "MILD",
          "MILD",
          "MILD",
          "MILD",
          "MILD",
          "MILD",
          "MILD",
          "MODERATE",
          "SEVERE",
          "MODERATE",
          "MODERATE",
          "MODERATE"
        ],
        "AESER": [
          "N",
          "N",
          "N",
          "N",
          "N",
          "N",
          "N",
          "Y",
          "N",
          "N",
          "N",
          "N",
          "N",
          "N",
          "N",
          "N",
          "N",
          "N"
        ],
        "AEACN": [
          "DRUG WITHDRAWN",
          "DOSE NOT CHANGED",
          "DOSE NOT CHANGED",
          "DOSE NOT CHANGED",
          "DOSE NOT CHANGED",
          "DOSE NOT CHANGED",
          "DOSE NOT CHANGED",
          "DOSE NOT CHANGED",
          "DOSE NOT CHANGED",
          "DOSE NOT CHANGED",
          "DOSE NOT CHANGED",
          "DOSE NOT CHANGED",
          "DOSE NOT CHANGED",
          "DOSE NOT CHANGED",
          "DOSE NOT CHANGED",
          "DOSE NOT CHANGED",
          "DOSE NOT CHANGED",
          "DOSE NOT CHANGED"
        ],
        "AEREL": [
          "RELATED",
          "UNLIKELY RELATED",
          "POSSIBLY RELATED",
          "NOT RELATED",
          "NOT RELATED",
          "UNLIKELY RELATED",
          "NOT RELATED",
          "UNLIKELY RELATED",
          "RELATED",
          "NOT RELATED",
          "NOT RELATED",
          "POSSIBLY RELATED",
          "POSSIBLY RELATED",
          "NOT RELATED",
          "RELATED",
          "RELATED",
          "POSSIBLY RELATED",
          "POSSIBLY RELATED"
        ],
        "AEOUT": [
          "NOT RECOVERED/NOT RESOLVED",
          "NOT RECOVERED/NOT RESOLVED",
          "NOT RECOVERED/NOT RESOLVED",
          "NOT RECOVERED/NOT RESOLVED",
          "RECOVERED/RESOLVED",
          "RECOVERED/RESOLVED",
          "NOT RECOVERED/NOT RESOLVED",
          "NOT RECOVERED/NOT RESOLVED",
          "NOT RECOVERED/NOT RESOLVED",
          "NOT RECOVERED/NOT RESOLVED",
          "NOT RECOVERED/NOT RESOLVED",
          "NOT RECOVERED/NOT RESOLVED",
          "NOT RECOVERED/NOT RESOLVED",
          "RECOVERED/RESOLVED",
          "RECOVERED/RESOLVED",
          "RECOVERED/RESOLVED",
          "RECOVERED/RESOLVED",
          "RECOVERED/RESOLVED"
        ],
        "AESCAN": [
          "N",
          "N",
          "N",
          "N",
          "N",
          "N",
          "N",
          "N",
          "N",
          "N",
          "N",
          "N",
          "N",
          "N",
          "N",
          "N",
          "N",
          "N"
        ],
        "AESCONG": [
          "N",
          "N",
          "N",
          "N",
          "N",
          "N",
          "N",
          "N",
          "N",
          "N",
          "N",
          "N",
          "N",
          "N",
          "N",
          "N",
          "N",
          "N"
        ],
        "AESDISAB": [
          "N",
          "N",
          "N",
          "N",
          "N",
          "N",
          "N",
          "N",
          "N",
          "N",
          "N",
          "N",
          "N",
          "N",
          "N",
          "N",
          "N",
          "N"
        ],
        "AESDTH": [
          "N",
          "N",
          "N",
          "N",
          "N",
          "N",
          "N",
          "N",
          "N",
          "N",
          "N",
          "N",
          "N",
          "N",
          "N",
          "N",
          "N",
          "N"
        ],
        "AESHOSP": [
          "N",
          "N",
          "N",
          "N",
          "N",
          "N",
          "N",
          "N",
          "N",
          "N",
          "N",
          "N",
          "N",
          "N",
          "N",
          "N",
          "N",
          "N"
        ],
        "AESLIFE": [
          "N",
          "N",
          "N",
          "N",
          "N",
          "N",
          "N",
          "N",
          "N",
          "N",
          "N",
          "N",
          "N",
          "N",
          "N",
          "N",
          "N",
          "N"
        ],
        "AESOD": [
          "N",
          "N",
          "N",
          "N",
          "N",
          "N",
          "N",
          "N",
          "N",
          "N",
          "N",
          "N",
          "N",
          "N",
          "N",
          "N",
          "N",
          "N"
        ],
        "EPOCH": [
          "TREATMENT",
          "TREATMENT",
          "TREATMENT",
          "TREATMENT",
          "TREATMENT",
          "TREATMENT",
          "TREATMENT",
          "TREATMENT",
          "TREATMENT",
          "TREATMENT",
          "TREATMENT",
          "TREATMENT",
          "TREATMENT",
          "TREATMENT",
          "TREATMENT",
          "TREATMENT",
          "TREATMENT",
          "TREATMENT"
        ],
        "AESTDTC": [
          "2012-12-02",
          "2013-01-14",
          "2012-11-16",
          "2012-11-21",
          "2012-11-21",
          "2013-09-05",
          "2013-09-15",
          "2013-09-30",
          "2013-10-15",
          "2013-10-23",
          "2013-10-23",
          "2013-10-24",
          "2013-10-24",
          "2013-07-17",
          "2013-01-21",
          "2013-01-27",
          "2013-02-04",
          "2013-02-04"
        ],
        "AEENDTC": [
          "",
          "",
          "",
          "",
          "2012-11-21",
          "2013-10-08",
          "",
          "",
          "",
          "",
          "",
          "",
          "",
          "2013-07-26",
          "2013-01-24",
          "2013-01-28",
          "2013-02-25",
          "2013-02-25"
        ],
        "AESTDY": [
          3,
          46,
          2,
          7,
          7,
          8,
          18,
          33,
          48,
          56,
          56,
          57,
          57,
          164,
          36,
          42,
          50,
          50
        ],
        "AEENDY": [
          null,
          null,
          null,
          null,
          7,
          41,
          null,
          null,
          null,
          null,
          null,
          null,
          null,
          173,
          39,
          43,
          71,
          71
        ],
        "AEENRTPT": [
          "ONGOING",
          "ONGOING",
          "ONGOING",
          "ONGOING",
          "",
          "",
          "ONGOING",
          "ONGOING",
          "ONGOING",
          "ONGOING",
          "ONGOING",
          "ONGOING",
          "ONGOING",
          "",
          "",
          "",
          "",
          ""
        ],
        "AEENTPT": [
          "2013-05-20",
          "2013-05-20",
          "2013-01-14",
          "2013-01-14",
          "",
          "",
          "2013-02-13",
          "2013-02-13",
          "2013-02-13",
          "2013-02-13",
          "2013-02-13",
          "2013-02-13",
          "2013-02-13",
          "",
          "",
          "",
          "",
          ""
        ]
      }
    }
  ]
}