STUDYID,DOMAIN,USUBJID,CESEQ,CEGRPID,CETERM,CESEV,EPOCH,CEDTC,CESTDTC,CEENDTC,CESTDY,CEENDY,CESTRTPT,CESTTPT,CEENRTPT,CEENTPT
CDISCPILOT01,CE,CDISC001,1,1,INJECTION SITE REACTION,MODERATE,TREATMENT,,2012-12-02,,3,,,,ONGOING,
CDISCPILOT01,CE,CDISC002,1,1,INJECTION SITE REACTION,MILD,TREATMENT,,2012-11-16,,2,,AFTER,FIRST DOSE,ONGOING,
CDISCPILOT01,CE,CDISC002,5,5,INJECTION SITE REACTION,MILD,TREATMENT,,2012-11-29,,15,,,,ONGOING,
CDISCPILOT01,CE,CDISC003,14,14,INJECTION SITE REACTION,MILD,TREATMENT,,2013-10-15,,48,,COINCIDENT,FIRST DOSE,,
CDISCPILOT01,CE,CDISC005,1,1,INJECTION SITE REACTION,MILD,TREATMENT,,2013-02-07,2013-02-07,4,4,,,,
CDISCPILOT01,CE,CDISC005,2,2,INJECTION SITE REACTION,MILD,TREATMENT,,2013-03-23,,48,,,,ONGOING,
CDISCPILOT01,CE,CDISC005,3,4,INJECTION SITE REACTION,MILD,TREATMENT,,2013-03-23,2013-03-26,48,51,,,,
CDISCPILOT01,CE,CDISC005,4,5,INJECTION SITE REACTION,MILD,TREATMENT,,2013-04-12,,68,,,,ONGOING,
CDISCPILOT01,CE,CDISC007,1,1,INJECTION SITE REACTION,MODERATE,TREATMENT,,2013-01-19,,15,,,,ONGOING,
CDISCPILOT01,CE,CDISC011,2,2,INJECTION SITE REACTION,MILD,TREATMENT,,2013-01-12,2013-01-12,37,37,,,,
CDISCPILOT01,CE,CDISC011,4,4,INJECTION SITE REACTION,MILD,TREATMENT,,2013-04-10,2013-06-05,125,181,DURING/AFTER,FIRST DOSE,,
CDISCPILOT01,CE,CDISC014,1,1,INJECTION SITE REACTION,MODERATE,TREATMENT,,2013-04-16,2013-05-02,14,30,,,,
CDISCPILOT01,CE,CDISC017,5,5,INJECTION SITE REACTION,MODERATE,TREATMENT,,2013-12-29,2014-02-19,100,152,,,,
CDISCPILOT01,CE,CDISC018,8,8,INJECTION SITE REACTION,MODERATE,TREATMENT,,2013-01-27,2013-01-28,42,43,,,,
