STUDYID,SUBJID,USUBJID,FASFL,SAFFL,ITTFL,PPROTFL,COMPLFL,RANDFL,ENRLFL,ARM,ACTARM,Age,AGEU,TRT01AN,TRT01A
TEST1,1001,TEST1_1001,Y,Y,Y,Y,Y,Y,Y,DUMMY1,DUMMY DESCRIPTION,28,YEARS,1,Drug X 5 mg
TEST1,1002,TEST1_1002,y,Y,Y,N,Y,Y,Y,DUMMY1,DUMMY DESCRIPTION,42,YEARS,2,Drug X 10 mg
