STUDYID,DOMAIN,USUBJID,PESEQ,PESPID,PETESTCD,PETEST,PEBODSYS,PEORRES,PESTRESC,PESTAT,PEREASND,PELOC,PELAT,VISITNUM,VISIT,VISITDY,PEDTC,PEDY
ABC,PE,ABC-001-001,1,,HEAD,Head,,NORMAL,NORMAL,,,,,-1,BASELINE,-1,1999-06-06,-3
ABC,PE,ABC-001-001,2,,ENT,Ear/Nose/Throat,,NORMAL,NORMAL,,,,,-1,BASELINE,-1,1999-06-06,-3
ABC,PE,ABC-001-001,3,1,SKIN,Skin,Skin and subcutaneous tissue disorder,ACNE,Acne,,,FACE,,-1,BASELINE,-1,1999-06-06,-3
ABC,PE,ABC-001-001,4,2,SKIN,Skin,Skin and subcutaneous tissue disorder,DERMATITIS,Dermatitis,,,HAND,BILATERAL,-1,BASELINE,-1,1999-06-06,-3
ABC,PE,ABC-001-001,5,3,SKIN,Skin,Skin and subcutaneous tissue disorder,SKIN RASH,Rash,,,ARM,LEFT,-1,BASELINE,-1,1999-06-06,-3
ABC,PE,ABC-001-001,6,,HEART,Heart,,NORMAL,NORMAL,,,,,-1,BASELINE,-1,1999-06-06,-3
ABC,PE,ABC-001-001,7,,GNTU,Genitourinary system,,,,NOT DONE,Not Indicated,,,-1,BASELINE,-1,1999-06-06,-3
