dataset,variable,label,type,length
apmh.xpt,STUDYID,Study Identifier,Char,50
apmh.xpt,DOMAIN,Domain Abbreviation,Char,50
apmh.xpt,APID,Associated Persons Identifier,Char,50
apmh.xpt,MHSEQ,Sequence Number,Num,8
apmh.xpt,RSUBJID,Related Subject or Pool Identifier,Char,50
apmh.xpt,SREL,"Subject, Device, or Study Relationship",Char,50
apmh.xpt,MHTERM,Reported Term for the Medical History,Char,50
apmh.xpt,MHPRESP,Medical History Event Pre-Specified,Char,50
apmh.xpt,MHOCCUR,Medical History Occurrence,Char,50
dm.xpt,STUDYID,Study Identifier,Char,50
dm.xpt,DOMAIN,Domain Abbreviation,Char,50
dm.xpt,USUBJID,Unique Subject Identifier,Char,50
dm.xpt,ARMCD,Planned Arm Code,Char,50
dm.xpt,ARM,Description of Planned Arm,Char,50
dm.xpt,ACTARMCD,Actual Arm Code,Char,50
dm.xpt,ACTARM,Description of Actual Arm,Char,50
dm.xpt,ARMNRS,Reason Arm and/or Actual Arm is Null,Char,50
dm.xpt,ACTARMUD,Description of Unplanned Actual Arm,Char,50
ae.xpt,STUDYID,Study Identifier,Char,50
ae.xpt,DOMAIN,Domain Abbreviation,Char,50
ae.xpt,USUBJID,Unique Subject Identifier,Char,50
ae.xpt,AESEQ,Sequence Number,Num,8
ae.xpt,AETERM,Reported Term for the Adverse Event,Char,50
ae.xpt,AEMODIFY,Modified Reported Term,Char,50
ae.xpt,AEDECOD,Dictionary-Derived Term,Char,50
ae.xpt,AEBODSYS,Body System or Organ Class,Char,50
ae.xpt,AESEV,Severity/Intensity,Char,50
ae.xpt,AESER,Serious Event,Char,50
ae.xpt,AEACN,Action Taken with Study Treatment,Char,50
ae.xpt,AEREL,Causality,Char,50
ae.xpt,AEOUT,Outcome of Adverse Event,Char,50
ae.xpt,AESCONG,Congenital Anomaly or Birth Defect,Char,50
ae.xpt,AESDISAB,Persist or Signif Disability/Incapacity,Char,50
ae.xpt,AESDTH,Results in Death,Char,50
ae.xpt,AESHOSP,Requires or Prolongs Hospitalization,Char,50
ae.xpt,AESLIFE,Is Life Threatening,Char,50
ae.xpt,EPOCH,Epoch,Char,50
ae.xpt,AESTDTC,Start Date/Time of Adverse Event,Char,50
ae.xpt,AEENDTC,End Date/Time of Adverse Event,Char,50
ae.xpt,AESTDY,Study Day of Start of Adverse Event,Num,8
ae.xpt,AEENDY,Study Day of End of Adverse Event,Num,8
ae.xpt,AEENRF,End Relative to Reference Period,Char,50
