STUDYID,DOMAIN,USUBJID,SPDEVID,ECSEQ,ECTRT,ECPRESP,ECOCCUR,ECDOSE,ECDOSTXT,ECDOSU,ECDOSFRM,ECDOSFRQ,ECROUTE,ECLOT,ECPSTRG,ECPSTRGU,EPOCH,ECSTDTC,ECENDTC,ECSTDY,ECENDY
CDISCPILOT01,EC,CDISC001,DEV0001,1,ZANOMALINE,Y,Y,,MANY,,INJECTION,QD,SUBCUTANEOUS,SDS580-359,10.8,g/L,TREATMENT,2012-11-30,2012-11-30,1,1
CDISCPILOT01,EC,CDISC002,DEV0002,2,ZANOMALINE,Y,,,A LOT,,INJECTION,QD,SUBCUTANEOUS,SDS580-360,11.8,g/L,TREATMENT,2012-11-30,2012-11-30,1,1
CDISCPILOT01,EC,CDISC003,DEV0002,2,ZANOMALINE,Y,N,,,,INJECTION,QD,SUBCUTANEOUS,SDS580-360,11.8,g/L,TREATMENT,2012-11-30,2012-11-30,1,1
CDISCPILOT01,EC,CDISC004,DEV0002,2,ZANOMALINE,Y,Y,6,,,INJECTION,QD,SUBCUTANEOUS,SDS580-360,11.8,g/L,TREATMENT,2012-11-30,2012-11-30,1,1
CDISCPILOT01,EC,CDISC005,DEV0002,2,ZANOMALINE,Y,,10,,,INJECTION,QD,SUBCUTANEOUS,SDS580-360,11.8,g/L,TREATMENT,2012-11-30,2012-11-30,1,1
