STUDYID,DOMAIN,USUBJID,SPDEVID,EXSEQ,EXTRT,EXDOSE,EXDOSU,EXDOSFRM,EXDOSFRQ,EXROUTE,EXLOT,EPOCH,EXSTDTC,EXENDTC,EXSTDY,EXENDY
ABC123,EX,123101,DEV0001,1,ZANOMALINE,54,mg,INJECTION,QD,SUBCUTANEOUS,SDS580-359,TREATMENT,2005-10-13 00:00:00,2005-10-13 00:00:00,1,1
ABC123,EX,123101,DEV0001,2,ZANOMALINE,54,mg,INJECTION,QD,SUBCUTANEOUS,SDS580-359,TREATMENT,2005-10-14 00:00:00,2005-10-14 00:00:00,2,2
ABC123,EX,123101,DEV0001,3,ZANOMALINE,54,mg,INJECTION,QD,SUBCUTANEOUS,SDS580-359,TREATMENT,2005-10-15 00:00:00,2005-10-15 00:00:00,3,3
ABC123,EX,123101,DEV0001,4,ZANOMALINE,54,mg,INJECTION,QD,SUBCUTANEOUS,SDS580-359,TREATMENT,2005-10-16 00:00:00,2005-10-16 00:00:00,4,4
ABC123,EX,123101,DEV0001,5,ZANOMALINE,54,mg,INJECTION,QD,SUBCUTANEOUS,SDS580-359,TREATMENT,2005-10-17 00:00:00,2005-10-17 00:00:00,5,5
ABC123,EX,123101,DEV0001,6,ZANOMALINE,54,mg,INJECTION,QD,SUBCUTANEOUS,SDS580-359,TREATMENT,2005-10-18 00:00:00,2005-10-18 00:00:00,6,6
ABC123,EX,123101,DEV0001,7,ZANOMALINE,54,mg,INJECTION,QD,SUBCUTANEOUS,SDS580-359,TREATMENT,2005-10-19 00:00:00,2005-10-19 00:00:00,7,7
ABC123,EX,123101,DEV0001,8,ZANOMALINE,54,mg,INJECTION,QD,SUBCUTANEOUS,SDS580-359,TREATMENT,2005-10-20 00:00:00,2005-10-20 00:00:00,8,8
ABC123,EX,123101,DEV0001,9,ZANOMALINE,54,mg,INJECTION,QD,SUBCUTANEOUS,SDS580-359,TREATMENT,2005-10-21 00:00:00,2005-10-21 00:00:00,9,9
ABC123,EX,123101,DEV0001,10,ZANOMALINE,54,mg,INJECTION,QD,SUBCUTANEOUS,SDS580-359,TREATMENT,2005-10-22 00:00:00,2005-10-22 00:00:00,10,10
ABC123,EX,123101,DEV0001,11,ZANOMALINE,54,mg,INJECTION,QD,SUBCUTANEOUS,SDS580-359,TREATMENT,2005-10-23 00:00:00,2005-10-23 00:00:00,11,11
ABC123,EX,123101,DEV0001,12,ZANOMALINE,54,mg,INJECTION,QD,SUBCUTANEOUS,SDS580-359,TREATMENT,2005-10-24 00:00:00,2005-10-24 00:00:00,12,12
ABC123,EX,123101,DEV0001,13,ZANOMALINE,54,mg,INJECTION,QD,SUBCUTANEOUS,SDS580-359,TREATMENT,2005-10-25 00:00:00,2005-10-25 00:00:00,13,13
ABC123,EX,123101,DEV0001,14,ZANOMALINE,54,mg,INJECTION,QD,SUBCUTANEOUS,SDS580-359,TREATMENT,2005-10-26 00:00:00,2005-10-26 00:00:00,14,14
ABC123,EX,123101,DEV0001,15,ZANOMALINE,54,mg,INJECTION,QD,SUBCUTANEOUS,SDS580-359,TREATMENT,2005-10-27 00:00:00,2005-10-27 00:00:00,15,15
ABC123,EX,123101,DEV0001,16,ZANOMALINE,54,mg,INJECTION,QD,SUBCUTANEOUS,SDS580-359,TREATMENT,2005-10-28 00:00:00,2005-10-28 00:00:00,16,16
ABC123,EX,123101,DEV0001,17,ZANOMALINE,54,mg,INJECTION,QD,SUBCUTANEOUS,SDS580-359,TREATMENT,2005-10-29 00:00:00,2005-10-29 00:00:00,17,17
ABC123,EX,123101,DEV0001,18,ZANOMALINE,54,mg,INJECTION,QD,SUBCUTANEOUS,SDS580-359,TREATMENT,2005-10-30 00:00:00,2005-10-30 00:00:00,18,18
ABC123,EX,123101,DEV0001,19,ZANOMALINE,54,mg,INJECTION,QD,SUBCUTANEOUS,SDS580-359,TREATMENT,2005-10-31 00:00:00,2005-10-31 00:00:00,19,19
ABC123,EX,123101,DEV0001,20,ZANOMALINE,54,mg,INJECTION,QD,SUBCUTANEOUS,SDS580-359,TREATMENT,2005-11-01 00:00:00,2005-11-01 00:00:00,20,20
ABC123,EX,123101,DEV0001,21,ZANOMALINE,54,mg,INJECTION,QD,SUBCUTANEOUS,SDS580-359,TREATMENT,2005-11-02 00:00:00,2005-11-02 00:00:00,21,21
ABC123,EX,123101,DEV0001,22,ZANOMALINE,54,mg,INJECTION,QD,SUBCUTANEOUS,SDS580-359,TREATMENT,2005-11-03 00:00:00,2005-11-03 00:00:00,22,22
ABC123,EX,123101,DEV0001,23,ZANOMALINE,54,mg,INJECTION,QD,SUBCUTANEOUS,SDS580-359,TREATMENT,2005-11-04 00:00:00,2005-11-04 00:00:00,23,23
ABC123,EX,123101,DEV0001,24,ZANOMALINE,54,mg,INJECTION,QD,SUBCUTANEOUS,SDS580-359,TREATMENT,2005-11-05 00:00:00,2005-11-05 00:00:00,24,24
ABC123,EX,123101,DEV0001,25,ZANOMALINE,54,mg,INJECTION,QD,SUBCUTANEOUS,SDS580-359,TREATMENT,2005-11-06 00:00:00,2005-11-06 00:00:00,25,25
ABC123,EX,123101,DEV0001,26,ZANOMALINE,54,mg,INJECTION,QD,SUBCUTANEOUS,SDS580-359,TREATMENT,2005-11-07 00:00:00,2005-11-07 00:00:00,26,26
ABC123,EX,123101,DEV0001,27,ZANOMALINE,54,mg,INJECTION,QD,SUBCUTANEOUS,SDS580-359,TREATMENT,2005-11-08 00:00:00,2005-11-08 00:00:00,27,27
ABC123,EX,123101,DEV0001,28,ZANOMALINE,54,mg,INJECTION,QD,SUBCUTANEOUS,SDS580-359,TREATMENT,2005-11-09 00:00:00,2005-11-09 00:00:00,28,28
ABC123,EX,123101,DEV0001,29,ZANOMALINE,54,mg,INJECTION,QD,SUBCUTANEOUS,SDS580-359,TREATMENT,2005-11-10 00:00:00,2005-11-10 00:00:00,29,29
ABC123,EX,123101,DEV0001,30,ZANOMALINE,54,mg,INJECTION,QD,SUBCUTANEOUS,SDS580-359,TREATMENT,2005-11-11 00:00:00,2005-11-11 00:00:00,30,30
ABC123,EX,123101,DEV0001,31,ZANOMALINE,54,mg,INJECTION,QD,SUBCUTANEOUS,SDS580-359,TREATMENT,2005-11-12 00:00:00,2005-11-12 00:00:00,31,31
ABC123,EX,123101,DEV0001,32,ZANOMALINE,54,mg,INJECTION,QD,SUBCUTANEOUS,SDS580-359,TREATMENT,2005-11-13 00:00:00,2005-11-13 00:00:00,32,32
ABC123,EX,123101,DEV0001,33,ZANOMALINE,54,mg,INJECTION,QD,SUBCUTANEOUS,SDS580-359,TREATMENT,2005-11-14 00:00:00,2005-11-14 00:00:00,33,33
ABC123,EX,123101,DEV0001,34,ZANOMALINE,54,mg,INJECTION,QD,SUBCUTANEOUS,SDS580-359,TREATMENT,2005-11-15 00:00:00,2005-11-15 00:00:00,34,34
ABC123,EX,123101,DEV0001,35,ZANOMALINE,54,mg,INJECTION,QD,SUBCUTANEOUS,SDS580-359,TREATMENT,2005-11-16 00:00:00,2005-11-16 00:00:00,35,35
ABC123,EX,123101,DEV0001,36,ZANOMALINE,54,mg,INJECTION,QD,SUBCUTANEOUS,SDS580-359,TREATMENT,2005-11-17 00:00:00,2005-11-17 00:00:00,36,36
ABC123,EX,123101,DEV0001,37,ZANOMALINE,54,mg,INJECTION,QD,SUBCUTANEOUS,SDS580-359,TREATMENT,2005-11-18 00:00:00,2005-11-18 00:00:00,37,37
ABC123,EX,123101,DEV0001,38,ZANOMALINE,54,mg,INJECTION,QD,SUBCUTANEOUS,SDS580-359,TREATMENT,2005-11-19 00:00:00,2005-11-19 00:00:00,38,38
ABC123,EX,123101,DEV0001,39,ZANOMALINE,54,mg,INJECTION,QD,SUBCUTANEOUS,SDS580-359,TREATMENT,2005-11-20 00:00:00,2005-11-20 00:00:00,39,39
ABC123,EX,123101,DEV0001,40,ZANOMALINE,54,mg,INJECTION,QD,SUBCUTANEOUS,SDS580-359,TREATMENT,2005-11-21 00:00:00,2005-11-21 00:00:00,40,40
ABC123,EX,123101,DEV0001,41,ZANOMALINE,54,mg,INJECTION,QD,SUBCUTANEOUS,SDS580-359,TREATMENT,2005-11-22 00:00:00,2005-11-22 00:00:00,41,41
ABC123,EX,123101,DEV0001,42,ZANOMALINE,54,mg,INJECTION,QD,SUBCUTANEOUS,SDS580-359,TREATMENT,2005-11-23 00:00:00,2005-11-23 00:00:00,42,42
ABC123,EX,123101,DEV0001,43,ZANOMALINE,54,mg,INJECTION,QD,SUBCUTANEOUS,SDS580-359,TREATMENT,2005-11-24 00:00:00,2005-11-24 00:00:00,43,43
ABC123,EX,123101,DEV0001,44,ZANOMALINE,54,mg,INJECTION,QD,SUBCUTANEOUS,SDS580-359,TREATMENT,2005-11-25 00:00:00,2005-11-25 00:00:00,44,44
ABC123,EX,123101,DEV0001,45,ZANOMALINE,54,mg,INJECTION,QD,SUBCUTANEOUS,SDS580-359,TREATMENT,2005-11-26 00:00:00,2005-11-26 00:00:00,45,45
ABC123,EX,123101,DEV0001,46,ZANOMALINE,54,mg,INJECTION,QD,SUBCUTANEOUS,SDS580-359,TREATMENT,2005-11-27 00:00:00,2005-11-27 00:00:00,46,46
ABC123,EX,123101,DEV0001,47,ZANOMALINE,54,mg,INJECTION,QD,SUBCUTANEOUS,SDS580-359,TREATMENT,2005-11-28 00:00:00,2005-11-28 00:00:00,47,47
ABC123,EX,123101,DEV0001,48,ZANOMALINE,54,mg,INJECTION,QD,SUBCUTANEOUS,SDS580-359,TREATMENT,2005-11-29 00:00:00,2005-11-29 00:00:00,48,48
ABC123,EX,123101,DEV0001,49,ZANOMALINE,54,mg,INJECTION,QD,SUBCUTANEOUS,SDS580-359,TREATMENT,2005-11-30 00:00:00,2005-11-30 00:00:00,49,49
ABC123,EX,123101,DEV0001,50,ZANOMALINE,54,mg,INJECTION,QD,SUBCUTANEOUS,SDS580-359,TREATMENT,2005-12-01 00:00:00,2005-12-01 00:00:00,50,50
ABC123,EX,123101,DEV0001,51,ZANOMALINE,54,mg,INJECTION,QD,SUBCUTANEOUS,SDS580-359,TREATMENT,2005-12-02 00:00:00,2005-12-02 00:00:00,51,51
ABC123,EX,123101,DEV0001,52,ZANOMALINE,54,mg,INJECTION,QD,SUBCUTANEOUS,SDS580-359,TREATMENT,2005-12-03 00:00:00,2005-12-03 00:00:00,52,52
ABC123,EX,123101,DEV0001,53,ZANOMALINE,54,mg,INJECTION,QD,SUBCUTANEOUS,SDS580-359,TREATMENT,2005-12-04 00:00:00,2005-12-04 00:00:00,53,53
ABC123,EX,123101,DEV0001,54,ZANOMALINE,54,mg,INJECTION,QD,SUBCUTANEOUS,SDS580-359,TREATMENT,2005-12-05 00:00:00,2005-12-05 00:00:00,54,54
ABC123,EX,123101,DEV0001,55,ZANOMALINE,54,mg,INJECTION,QD,SUBCUTANEOUS,SDS580-359,TREATMENT,2005-12-06 00:00:00,2005-12-06 00:00:00,55,55
