STUDYID,DOMAIN,USUBJID,FTSEQ,FTTESTCD,FTTEST,FTCAT,FTSCAT,FTORRES,FTSTRESC,FTSTRESN,FTLOBXFL,FTREPNUM,VISIT,EPOCH,FTDTC,FTDY,FTTPT,FTTPTNUM,FTELTM
CDISCPILOT01,FT,CDISC001,120,AVL0201,AVL02-List A Word 1,AVLT-REY,FORM 1,RECALLED,RECALLED,,Y,7,SCREENING 2,SCREENING,2012-11-28T13:00,-2,30 MIN POST,1,PT30M
CDISCPILOT01,FT,CDISC001,121,AVL0202,AVL02-List A Word 2,AVLT-REY,FORM 1,RECALLED,RECALLED,,Y,7,SCREENING 2,SCREENING,2012-11-28T13:00,-2,30 MIN POST,1,PT30M
CDISCPILOT01,FT,CDISC007,134,AVL0215,AVL02-List A Word 15,AVLT-REY,FORM 1,RECALLED,RECALLED,,,7,EARLY DISCONTINUATION RETRIEVAL,TREATMENT,2013-06-20T10:00,167,60 MIN POST,2,PT30M
CDISCPILOT01,FT,CDISC007,135,AVL0216,AVL02-List A Word 16,AVLT-REY,FORM 1,RECALLED,RECALLED,,,7,EARLY DISCONTINUATION RETRIEVAL,TREATMENT,2013-06-20T10:00,167,60 MIN POST,2,PT30M
