{
    "rule": {
        "Authorities": [
            {
                "Organization": "CDISC",
                "Standards": [
                    {
                        "Name": "SDTMIG",
                        "References": [
                            {
                                "Citations": [
                                    {
                                        "Document": "IG v3.2",
                                        "Item": "Specification|Assumption 4|Assumption 10",
                                        "Section": "5",
                                        "Cited_Guidance": "Specification[ACTARMCD: Randomized subjects who were not treated will be given a value of NOTTRT. Values should be \"SCRNFAIL\" for screen failures and \"NOTASSGN\" for subjects not assigned to treatment]|Assumption 4[Subjects withdrawn from a trial before assignment to an Arm, if they are not screen failures, should have ARMCD = 'NOTASSGN' and ARM = 'Not Assigned'.]|Assumption 10[subjects who are ineligible for treatment (e.g., screen failures with ARMCD=SCRNFAIL), subjects who were enrolled but not assigned to an arm (ARMCD=NOTASSGN), or subjects who were randomized but not treated (ACTARMCD=NOTTRT), RFSTDTC will be null.]"
                                    }
                                ],
                                "Origin": "SDTM and SDTMIG Conformance Rules",
                                "Version": "2.0",
                                "Rule_Identifier": {
                                    "Id": "CG0109",
                                    "Version": "1"
                                }
                            }
                        ],
                        "Version": "3.2"
                    }
                ]
            }
        ],
        "Check": {
            "all": [
                {
                    "name": "ACTARMCD",
                    "operator": "is_not_contained_by_case_insensitive",
                    "value": [
                        "SCRNFAIL",
                        "NOTASSGN",
                        "NOTTRT"
                    ]
                },
                {
                    "name": "USUBJID",
                    "operator": "is_not_contained_by",
                    "value": "$usubjids_in_ex"
                }
            ]
        },
        "Core": {
            "Id": "CORE-000366",
            "Status": "Draft",
            "Version": "1"
        },
        "Description": "Raise an error when subject has no records in EX but ACTARMCD is not equal to SCRNFAIL, NOTASSGN or NOTTRT.",
        "Executability": "Fully Executable",
        "Operations": [
            {
                "domain": "EX",
                "id": "$usubjids_in_ex",
                "name": "USUBJID",
                "operator": "distinct"
            }
        ],
        "Outcome": {
            "Message": "Subject has no records in EX but ACTARMCD is not equal to SCRNFAIL, NOTASSGN or NOTTRT.",
            "Output_Variables": [
                "ACTARMCD"
            ]
        },
        "Scope": {
            "Classes": {
                "Include": [
                    "SPECIAL PURPOSE"
                ]
            },
            "Domains": {
                "Include": [
                    "DM"
                ]
            }
        },
        "Sensitivity": "Record",
        "Rule_Type": "Record Data"
    },
    "datasets": [
        {
            "filename": "dm.xpt",
            "label": "Demographics",
            "domain": "DM",
            "variables": [
                {
                    "name": "STUDYID",
                    "label": "Study Identifier",
                    "type": "Char",
                    "length": 12
                },
                {
                    "name": "DOMAIN",
                    "label": "Domain Abbreviation",
                    "type": "Char",
                    "length": 2
                },
                {
                    "name": "USUBJID",
                    "label": "Unique Subject Identifier",
                    "type": "Char",
                    "length": 20
                },
                {
                    "name": "SUBJID",
                    "label": "Subject Identifier for the Study",
                    "type": "Char",
                    "length": 12
                },
                {
                    "name": "RFSTDTC",
                    "label": "Subject Reference Start Date/Time",
                    "type": "Char",
                    "length": 10
                },
                {
                    "name": "RFENDTC",
                    "label": "Subject Reference End Date/Time",
                    "type": "Char",
                    "length": 10
                },
                {
                    "name": "RFXSTDTC",
                    "label": "Date/Time of First Study Treatment",
                    "type": "Char",
                    "length": 10
                },
                {
                    "name": "RFXENDTC",
                    "label": "Date/Time of Last Study Treatment",
                    "type": "Char",
                    "length": 10
                },
                {
                    "name": "RFICDTC",
                    "label": "Date/Time of Informed Consent",
                    "type": "Char",
                    "length": 10
                },
                {
                    "name": "RFPENDTC",
                    "label": "Date/Time of End of Participation",
                    "type": "Char",
                    "length": 10
                },
                {
                    "name": "DTHDTC",
                    "label": "Date/Time of Death",
                    "type": "Char",
                    "length": 10
                },
                {
                    "name": "DTHFL",
                    "label": "Subject Death Flag",
                    "type": "Char",
                    "length": 1
                },
                {
                    "name": "SITEID",
                    "label": "Study Site Identifier",
                    "type": "Char",
                    "length": 3
                },
                {
                    "name": "BRTHDTC",
                    "label": "Date/Time of Birth",
                    "type": "Char",
                    "length": 10
                },
                {
                    "name": "AGE",
                    "label": "Age",
                    "type": "Num",
                    "length": 8
                },
                {
                    "name": "AGETXT",
                    "label": "Age Text",
                    "type": "Char",
                    "length": 5
                },
                {
                    "name": "AGEU",
                    "label": "Age Units",
                    "type": "Char",
                    "length": 5
                },
                {
                    "name": "SEX",
                    "label": "Sex",
                    "type": "Char",
                    "length": 1
                },
                {
                    "name": "RACE",
                    "label": "Race",
                    "type": "Char",
                    "length": 41
                },
                {
                    "name": "ETHNIC",
                    "label": "Ethnicity",
                    "type": "Char",
                    "length": 22
                },
                {
                    "name": "ARMCD",
                    "label": "Planned Arm Code",
                    "type": "Char",
                    "length": 8
                },
                {
                    "name": "ARM",
                    "label": "Description of Planned Arm",
                    "type": "Char",
                    "length": 28
                },
                {
                    "name": "ACTARMCD",
                    "label": "Actual Arm Code",
                    "type": "Char",
                    "length": 8
                },
                {
                    "name": "ACTARM",
                    "label": "Description of Actual Arm",
                    "type": "Char",
                    "length": 28
                },
                {
                    "name": "ARMNRS",
                    "label": "Reason Arm and/or Actual Arm is Null",
                    "type": "Char",
                    "length": 14
                },
                {
                    "name": "ACTARMUD",
                    "label": "Description of Unplanned Actual Arm",
                    "type": "Char",
                    "length": 200
                },
                {
                    "name": "COUNTRY",
                    "label": "Country",
                    "type": "Char",
                    "length": 3
                }
            ],
            "records": {
                "STUDYID": [
                    "ABC",
                    "ABC",
                    "ABC",
                    "ABC",
                    "ABC",
                    "ABC"
                ],
                "DOMAIN": [
                    "DM",
                    "DM",
                    "DM",
                    "DM",
                    "DM",
                    "DM"
                ],
                "USUBJID": [
                    "015246-076-0003-00003",
                    "015246-300-0004-00002",
                    "015246-999-0004-9999",
                    "015246-076-0003-00004",
                    "015246-300-0004-00012",
                    "015246-999-0004-1000"
                ],
                "SUBJID": [
                    "076000300003",
                    "300000400002",
                    "99900049999",
                    "076000300003",
                    "300000400002",
                    "99900049999"
                ],
                "RFSTDTC": [
                    "2018-04-02T11:32",
                    "2018-05-08T11:20",
                    "2018-05-08T11:20",
                    "2018-04-02T11:32",
                    "2018-05-08T11:20",
                    "2018-05-08T11:20"
                ],
                "RFENDTC": [
                    "2019-02-19T10:55",
                    "2018-08-29T10:35",
                    "2018-08-29T10:35",
                    "2019-02-19T10:55",
                    "2018-08-29T10:35",
                    "2018-08-29T10:35"
                ],
                "RFXSTDTC": [
                    "2018-04-02T11:32",
                    "2018-05-08T11:20",
                    "2018-05-08T11:20",
                    "2018-04-02T11:32",
                    "2018-05-08T11:20",
                    "2018-05-08T11:20"
                ],
                "RFXENDTC": [
                    "2019-02-19T10:55",
                    "2018-08-29T10:35",
                    "2018-08-29T10:35",
                    "2019-02-19T10:55",
                    "2018-08-29T10:35",
                    "2018-08-29T10:35"
                ],
                "RFICDTC": [
                    "2018-03-06",
                    "2018-04-17",
                    "2018-04-17",
                    "2018-03-06",
                    "2018-04-17",
                    "2018-04-17"
                ],
                "RFPENDTC": [
                    "2021-02-18",
                    "2018-09-04",
                    "2018-09-04",
                    "2021-02-18",
                    "2018-09-04",
                    "2018-09-04"
                ],
                "DTHDTC": [
                    "2021-02-18",
                    "2018-09-04",
                    "2019-11-18",
                    "2021-02-18",
                    "2018-09-04",
                    "2019-11-18"
                ],
                "DTHFL": [
                    "",
                    "N",
                    "Y",
                    "",
                    "N",
                    "Y"
                ],
                "SITEID": [
                    "0760003",
                    "3000004",
                    "3000004",
                    "0760003",
                    "3000004",
                    "3000004"
                ],
                "BRTHDTC": [
                    "1940-01-14",
                    "1947-12-23",
                    "1947-12-23",
                    "1940-01-14",
                    "1947-12-23",
                    "1947-12-23"
                ],
                "AGE": [
                    78,
                    70,
                    71,
                    78,
                    70,
                    71
                ],
                "AGETXT": [
                    "",
                    "",
                    "",
                    "",
                    "",
                    ""
                ],
                "AGEU": [
                    "YEARS",
                    "YEARS",
                    "YEARS",
                    "YEARS",
                    "YEARS",
                    "YEARS"
                ],
                "SEX": [
                    "F",
                    "F",
                    "F",
                    "F",
                    "F",
                    "F"
                ],
                "RACE": [
                    "WHITE",
                    "WHITE",
                    "WHITE",
                    "WHITE",
                    "WHITE",
                    "WHITE"
                ],
                "ETHNIC": [
                    "HISPANIC OR LATINO",
                    "NOT HISPANIC OR LATINO",
                    "NOT HISPANIC OR LATINO",
                    "HISPANIC OR LATINO",
                    "NOT HISPANIC OR LATINO",
                    "NOT HISPANIC OR LATINO"
                ],
                "ARMCD": [
                    "IKD",
                    "IKD",
                    "IKD",
                    "IKD",
                    "IKD",
                    "IKD"
                ],
                "ARM": [
                    "IKd",
                    "IKd",
                    "IKd",
                    "IKd",
                    "IKd",
                    "IKd"
                ],
                "ACTARMCD": [
                    "SCRNFAIL",
                    "NOTASSGN",
                    "Nottrt",
                    "RANDOM",
                    "NOTTRT",
                    "RANDOM"
                ],
                "ACTARM": [
                    "IKd",
                    "IKd",
                    "IKd",
                    "IKd",
                    "IKd",
                    "IKd"
                ],
                "ARMNRS": [
                    "",
                    "",
                    "",
                    "",
                    "",
                    ""
                ],
                "ACTARMUD": [
                    "",
                    "",
                    "",
                    "",
                    "",
                    ""
                ],
                "COUNTRY": [
                    "BRA",
                    "GRC",
                    "GRC",
                    "BRA",
                    "GRC",
                    "GRC"
                ]
            }
        },
        {
            "filename": "ex.xpt",
            "label": "Exposure",
            "domain": "EX",
            "variables": [
                {
                    "name": "STUDYID",
                    "label": "Study Identifier",
                    "type": "Char",
                    "length": 50
                },
                {
                    "name": "DOMAIN",
                    "label": "Domain Abbreviation",
                    "type": "Char",
                    "length": 50
                },
                {
                    "name": "USUBJID",
                    "label": "Unique Subject Identifier",
                    "type": "Char",
                    "length": 50
                },
                {
                    "name": "EXSEQ",
                    "label": "Sequence Number",
                    "type": "Num",
                    "length": 8
                },
                {
                    "name": "EXLNKID",
                    "label": "Link ID",
                    "type": "Char",
                    "length": 50
                },
                {
                    "name": "EXTRT",
                    "label": "Name of Treatment",
                    "type": "Char",
                    "length": 50
                },
                {
                    "name": "EXDOSE",
                    "label": "Dose",
                    "type": "Num",
                    "length": 8
                },
                {
                    "name": "EXDOSTXT",
                    "label": "Dose Description",
                    "type": "Char",
                    "length": 50
                },
                {
                    "name": "EXDOSU",
                    "label": "Dose Units",
                    "type": "Char",
                    "length": 50
                },
                {
                    "name": "EXDOSFRM",
                    "label": "Dose Form",
                    "type": "Char",
                    "length": 50
                },
                {
                    "name": "EXDOSFRQ",
                    "label": "Dosing Frequency per Interval",
                    "type": "Char",
                    "length": 50
                },
                {
                    "name": "EXROUTE",
                    "label": "Route of Administration",
                    "type": "Char",
                    "length": 50
                },
                {
                    "name": "EXVAMT",
                    "label": "Dose",
                    "type": "Num",
                    "length": 8
                },
                {
                    "name": "EXVAMTU",
                    "label": "Dose Units",
                    "type": "Char",
                    "length": 50
                },
                {
                    "name": "EXSTDTC",
                    "label": "Start Date/Time of Treatment",
                    "type": "Char",
                    "length": 50
                },
                {
                    "name": "EXENDTC",
                    "label": "End Date/Time of Treatment",
                    "type": "Char",
                    "length": 50
                },
                {
                    "name": "EXSTDY",
                    "label": "Study Day of Start of Treatment",
                    "type": "Num",
                    "length": 8
                },
                {
                    "name": "EXENDY",
                    "label": "Study Day of End of Treatment",
                    "type": "Num",
                    "length": 8
                }
            ],
            "records": {
                "STUDYID": [
                    "ABC",
                    "ABC",
                    "ABC"
                ],
                "DOMAIN": [
                    "EX",
                    "EX",
                    "EX"
                ],
                "USUBJID": [
                    "015246-076-0003-00004",
                    "015246-300-0004-00012",
                    "015246-999-0004-1000"
                ],
                "EXSEQ": [
                    1,
                    1,
                    2
                ],
                "EXLNKID": [
                    "A2-10110114",
                    "A2-20110114",
                    "A2-20110125"
                ],
                "EXTRT": [
                    "DRUG X",
                    "DRUG Z",
                    "DRUG Z"
                ],
                "EXDOSE": [
                    3,
                    500,
                    500
                ],
                "EXDOSTXT": [
                    "",
                    "",
                    ""
                ],
                "EXDOSU": [
                    "mg/kg",
                    "mg",
                    "mg"
                ],
                "EXDOSFRM": [
                    "INJECTION",
                    "TABLET",
                    "TABLET"
                ],
                "EXDOSFRQ": [
                    "ONCE",
                    "QD",
                    "QD"
                ],
                "EXROUTE": [
                    "SUBCUTANEOUS",
                    "ORAL",
                    "ORAL"
                ],
                "EXVAMT": [
                    0.1,
                    null,
                    null
                ],
                "EXVAMTU": [
                    "mL",
                    "",
                    ""
                ],
                "EXSTDTC": [
                    "40557",
                    "40557",
                    "40568"
                ],
                "EXENDTC": [
                    "40571",
                    "40566",
                    "40571"
                ],
                "EXSTDY": [
                    1,
                    1,
                    12
                ],
                "EXENDY": [
                    15,
                    10,
                    15
                ]
            }
        }
    ],
    "standard": {
        "product": "sdtmig",
        "version": "3-2"
    },
    "codelists": []
}