REQUEST:
{
  "rule": {
    "_links": {},
    "core_id": "CDISC.SDTMIG.CG0149",
    "reference": [
      {
        "Origin": "SDTM and SDTMIG Conformance Rules",
        "Version": "2.0",
        "Rule Identifier": {
          "Id": "CG0149",
          "Version": "1"
        }
      }
    ],
    "sensitivity": "Record",
    "severity": "error",
    "description": "Verify that the length of value in SETCD variable is <= 8",
    "authority": {
      "Organization": "CDISC"
    },
    "standards": [
      {
        "Name": "SDTMIG",
        "Version": "3.4"
      }
    ],
    "classes": {
      "Include": [
        "Special-Purpose",
        "Trial Design"
      ]
    },
    "domains": {
      "Include": [
        "DM",
        "TX"
      ]
    },
    "rule_type": "Variable Length",
    "conditions": {
      "all": [
        {
          "name": "get_dataset",
          "operator": "matches_regex",
          "value": {
            "target": "SETCD",
            "comparator": "^(.){9,}$"
          }
        }
      ]
    },
    "output_variables": [
      "SETCD"
    ],
    "actions": [
      {
        "name": "generate_dataset_error_objects",
        "params": {
          "message": "SETCD value length is greater than 8"
        }
      }
    ]
  },
  "datasets": [
    {
      "filename": "dm.xpt",
      "label": "Demographics",
      "domain": "DM",
      "variables": [
        {
          "name": "STUDYID",
          "label": "Study Identifier",
          "type": "Char",
          "length": 50
        },
        {
          "name": "DOMAIN",
          "label": "Domain Abbreviation",
          "type": "Char",
          "length": 50
        },
        {
          "name": "USUBJID",
          "label": "Unique Subject Identifier",
          "type": "Char",
          "length": 50
        },
        {
          "name": "ARMCD",
          "label": "Planned Arm Code",
          "type": "Char",
          "length": 50
        },
        {
          "name": "ARM",
          "label": "Description of Planned Arm",
          "type": "Char",
          "length": 50
        },
        {
          "name": "ACTARMCD",
          "label": "Actual Arm Code",
          "type": "Char",
          "length": 50
        },
        {
          "name": "ACTARM",
          "label": "Description of Actual Arm",
          "type": "Char",
          "length": 50
        },
        {
          "name": "ARMNRS",
          "label": "Reason Arm and/or Actual Arm is Null",
          "type": "Char",
          "length": 50
        },
        {
          "name": "ACTARMUD",
          "label": "Description of Unplanned Actual Arm",
          "type": "Char",
          "length": 50
        },
        {
          "name": "SETCD",
          "label": "Set Code",
          "type": "Char",
          "length": 50
        }
      ],
      "records": {
        "STUDYID": [
          "ABC123",
          "ABC123",
          "ABC123",
          "ABC123",
          "ABC123",
          "ABC123",
          "ABC123"
        ],
        "DOMAIN": [
          "DM",
          "DM",
          "DM",
          "DM",
          "DM",
          "DM",
          "DM"
        ],
        "USUBJID": [
          "123101",
          "123102",
          "123103",
          "123104",
          "123105",
          "123106",
          "123107"
        ],
        "ARMCD": [
          "A",
          "B",
          "",
          "",
          "A",
          "A",
          "B"
        ],
        "ARM": [
          "Drug A",
          "Drug B",
          "",
          "",
          "Drug A",
          "Drug A",
          "Drug B"
        ],
        "ACTARMCD": [
          "A",
          "B",
          "",
          "",
          "",
          "A",
          "B"
        ],
        "ACTARM": [
          "Drug A",
          "Drug B",
          "",
          "",
          "",
          "Drug A",
          "Drug B"
        ],
        "ARMNRS": [
          "",
          "",
          "SCREEN FAILURE",
          "NOT ASSIGNED",
          "ASSIGNED, NOT TREATED",
          "",
          ""
        ],
        "ACTARMUD": [
          "",
          "",
          "",
          "",
          "",
          "",
          ""
        ],
        "SETCD": [
          "DRGA_S",
          "DRGB_S",
          "",
          "",
          "",
          "DRGA_NS",
          "DRGB_NS"
        ]
      }
    },
    {
      "filename": "tx.xpt",
      "label": "Trial Sets",
      "domain": "TX",
      "variables": [
        {
          "name": "STUDYID",
          "label": "Study Identifier",
          "type": "Char",
          "length": 50
        },
        {
          "name": "DOMAIN",
          "label": "Domain Abbreviation",
          "type": "Char",
          "length": 50
        },
        {
          "name": "SETCD",
          "label": "Set Code",
          "type": "Char",
          "length": 50
        },
        {
          "name": "SET",
          "label": "Set Description",
          "type": "Char",
          "length": 50
        },
        {
          "name": "TXSEQ",
          "label": "Sequence Number",
          "type": "Char",
          "length": 50
        },
        {
          "name": "TXPARMCD",
          "label": "Trial Set Parameter Short Name",
          "type": "Char",
          "length": 50
        },
        {
          "name": "TXPARM",
          "label": "Trial Set Parameter",
          "type": "Char",
          "length": 50
        },
        {
          "name": "TXVAL",
          "label": "Trial Set Parameter Value",
          "type": "Char",
          "length": 50
        }
      ],
      "records": {
        "STUDYID": [
          "ABC123",
          "ABC123",
          "ABC123",
          "ABC123",
          "ABC123",
          "ABC123",
          "ABC123",
          "ABC123",
          "ABC123",
          "ABC123",
          "ABC123",
          "ABC123",
          "ABC123",
          "ABC123",
          "ABC123",
          "ABC123",
          "ABC123",
          "ABC123",
          "ABC123",
          "ABC123",
          "ABC123",
          "ABC123",
          "ABC123",
          "ABC123"
        ],
        "DOMAIN": [
          "TX",
          "TX",
          "TX",
          "TX",
          "TX",
          "TX",
          "TX",
          "TX",
          "TX",
          "TX",
          "TX",
          "TX",
          "TX",
          "TX",
          "TX",
          "TX",
          "TX",
          "TX",
          "TX",
          "TX",
          "TX",
          "TX",
          "TX",
          "TX"
        ],
        "SETCD": [
          "DRGA_NS",
          "DRGA_NS",
          "DRGA_NS",
          "DRGA_NS",
          "DRGA_NS",
          "DRGA_NS",
          "DRGA_S",
          "DRGA_S",
          "DRGA_S",
          "DRGA_S",
          "DRGA_S",
          "DRGA_S",
          "DRGB_NS",
          "DRGB_NS",
          "DRGB_NS",
          "DRGB_NS",
          "DRGB_NS",
          "DRGB_NS",
          "DRGB_S",
          "DRGB_S",
          "DRGB_S",
          "DRGB_S",
          "DRGB_S",
          "DRGB_S"
        ],
        "SET": [
          "Drug A Non- Smokers",
          "Drug A Non- Smokers",
          "Drug A Non- Smokers",
          "Drug A Non- Smokers",
          "Drug A Non- Smokers",
          "Drug A Non- Smokers",
          "Drug A Smokers",
          "Drug A Smokers",
          "Drug A Smokers",
          "Drug A Smokers",
          "Drug A Smokers",
          "Drug A Smokers",
          "Drug B Non- Smokers",
          "Drug B Non- Smokers",
          "Drug B Non- Smokers",
          "Drug B Non- Smokers",
          "Drug B Non- Smokers",
          "Drug B Non- Smokers",
          "Drug B Smokers",
          "Drug B Smokers",
          "Drug B Smokers",
          "Drug B Smokers",
          "Drug B Smokers",
          "Drug B Smokers"
        ],
        "TXSEQ": [
          "1",
          "2",
          "3",
          "4",
          "5",
          "6",
          "7",
          "8",
          "9",
          "10",
          "11",
          "12",
          "13",
          "14",
          "15",
          "16",
          "17",
          "18",
          "19",
          "20",
          "21",
          "22",
          "23",
          "24"
        ],
        "TXPARMCD": [
          "ARMCD",
          "GRPLBL",
          "SPGRPCD",
          "TRTDOS",
          "TRTDOSU",
          "POPTYPE",
          "ARMCD",
          "GRPLBL",
          "SPGRPCD",
          "TRTDOS",
          "TRTDOSU",
          "POPTYPE",
          "ARMCD",
          "GRPLBL",
          "SPGRPCD",
          "TRTDOS",
          "TRTDOSU",
          "POPTYPE",
          "ARMCD",
          "GRPLBL",
          "SPGRPCD",
          "TRTDOS",
          "TRTDOSU",
          "POPTYPE"
        ],
        "TXPARM": [
          "Arm Code",
          "Group Label",
          "Sponsor- Defined Group Code",
          "Dose Level",
          "Dose Units",
          "Population Type",
          "Arm Code",
          "Group Label",
          "Sponsor- Defined Group Code",
          "Dose Level",
          "Dose Units",
          "Population Type",
          "Arm Code",
          "Group Label",
          "Sponsor- Defined Group Code",
          "Dose Level",
          "Dose Units",
          "Population Type",
          "Arm Code",
          "Group Label",
          "Sponsor- Defined Group Code",
          "Dose Level",
          "Dose Units",
          "Population Type"
        ],
        "TXVAL": [
          "A",
          "Drug A Non- Smokers",
          "DRGA_NS",
          "50",
          "mg",
          "Non- Smokers",
          "A",
          "Drug A Smokers",
          "DRGA_S",
          "50",
          "mg",
          "Smokers",
          "B",
          "Drug B Non- Smokers",
          "DRGB_NS",
          "66",
          "mg",
          "Non- Smokers",
          "B",
          "Drug B Smokers",
          "DRGB_S",
          "66",
          "mg",
          "Smokers"
        ]
      }
    }
  ]
}

RESULTS:
{
  "DM": [],
  "TX": []
}