STUDYID,DOMAIN,USUBJID,ECSEQ,ECTRT,ECPRESP,ECOCCUR
CDISCPILOT01,EC,CDISC001,1,ZANOMALINE,,
CDISCPILOT01,EC,CDISC001,2,ZANOMALINE,,
CDISCPILOT01,EC,CDISC001,3,ZANOMALINE,,
CDISCPILOT01,EC,CDISC001,4,ZANOMALINE,,
