{3 items
"datasets":[2 items
0:{5 items
"filename":"sv.xpt"
"label":"Subject Visits"
"domain":"SV"
"variables":[13 items
0:{4 items
"name":"STUDYID"
"label":"Study Identifier"
"type":"Char"
"length":12
}
1:{4 items
"name":"DOMAIN"
"label":"Domain Abbreviation"
"type":"Char"
"length":2
}
2:{4 items
"name":"USUBJID"
"label":"Unique Subject Identifier"
"type":"Char"
"length":15
}
3:{4 items
"name":"SUBJID"
"label":"Subject Identifier for the Study"
"type":"Char"
"length":7
}
4:{4 items
"name":"VISITNUM"
"label":"Visit Number"
"type":"Num"
"length":8
}
5:{4 items
"name":"VISIT"
"label":"Visit Name"
"type":"Char"
"length":17
}
6:{4 items
"name":"VISITDY"
"label":"Planned Study Day of Visit"
"type":"Num"
"length":8
}
7:{4 items
"name":"EPOCH"
"label":"Epoch"
"type":"Char"
"length":20
}
8:{4 items
"name":"SVSTDTC"
"label":"Start Date/Time of Visit"
"type":"Char"
"length":10
}
9:{4 items
"name":"SVENDTC"
"label":"End Date/Time of Visit"
"type":"Num"
"length":8
}
10:{4 items
"name":"SVSTDY"
"label":"Study Day of Start of Visit"
"type":"Num"
"length":8
}
11:{4 items
"name":"SVENDY"
"label":"Study Day of End of Visit"
"type":"Num"
"length":8
}
12:{4 items
"name":"SVUPDES"
"label":"Description of Unplanned Visit"
"type":"Char"
"length":30
}
]
"records":{13 items
"STUDYID":[4 items
0:"CDISCPILOT01"
1:"CDISCPILOT01"
2:"CDISCPILOT01"
3:"CDISCPILOT01"
]
"DOMAIN":[4 items
0:"SV"
1:"SV"
2:"SV"
3:"SV"
]
"USUBJID":[4 items
0:"CDISC001"
1:"CDISC001"
2:"CDISC001"
3:"CDISC001"
]
"SUBJID":[4 items
0:"1"
1:"1"
2:"1"
3:"1"
]
"VISITNUM":[4 items
0:1
1:2.1
2:3.1
3:4
]
"VISIT":[4 items
0:"SCREENING"
1:"DAY 2 UNSCHEDULED"
2:"DAY 3 UNSCHEDULED"
3:"DAY 4"
]
"VISITDY":[4 items
0:-28
1:1
2:NULL
3:6
]
"EPOCH":[4 items
0:"SCREENING"
1:"SCREENING"
2:""
3:"7"
]
"SVSTDTC":[4 items
0:"2021-04-27"
1:"2021-05-01"
2:""
3:"8"
]
"SVENDTC":[4 items
0:NaN
1:NaN
2:NULL
3:9
]
"SVSTDY":[4 items
0:-28
1:1
2:NULL
3:10
]
"SVENDY":[4 items
0:-28
1:1
2:NULL
3:11
]
"SVUPDES":[4 items
0:""
1:"Evaluation of AE"
2:"Evaluation of AE"
3:""
]
}
}
1:{5 items
"filename":"tv.xpt"
"label":"Trial Visits"
"domain":"TV"
"variables":[9 items
0:{4 items
"name":"STUDYID"
"label":"Study Identifier"
"type":"Char"
"length":12
}
1:{4 items
"name":"DOMAIN"
"label":"Domain Abbreviation"
"type":"Char"
"length":2
}
2:{4 items
"name":"VISITNUM"
"label":"Visit Number"
"type":"Num"
"length":8
}
3:{4 items
"name":"VISIT"
"label":"Visit Name"
"type":"Char"
"length":9
}
4:{4 items
"name":"VISITDY"
"label":"Planned Study Day of Visit"
"type":"Num"
"length":8
}
5:{4 items
"name":"ARMCD"
"label":"Planned Arm Code"
"type":"Char"
"length":1
}
6:{4 items
"name":"ARM"
"label":"Description of Arm"
"type":"Char"
"length":1
}
7:{4 items
"name":"TVSTRL"
"label":"Visit Start Rule"
"type":"Num"
"length":52
}
8:{4 items
"name":"TVENRL"
"label":"Visit End Rule"
"type":"Num"
"length":1
}
]
"records":{9 items
"STUDYID":[4 items
0:"CDISCPILOT01"
1:"CDISCPILOT01"
2:"CDISCPILOT01"
3:"CDISCPILOT01"
]
"DOMAIN":[4 items
0:"TV"
1:"TV"
2:"TV"
3:"TV"
]
"VISITNUM":[4 items
0:1
1:2
2:3
3:4
]
"VISIT":[4 items
0:"SCREENING"
1:"DAY 2"
2:"DAY 3"
3:"DAY 4"
]
"VISITDY":[4 items
0:-28
1:1
2:2
3:3
]
"ARMCD":[4 items
0:""
1:""
2:""
3:""
]
"ARM":[4 items
0:""
1:""
2:""
3:""
]
"TVSTRL":[4 items
0:NaN
1:NaN
2:NaN
3:NaN
]
"TVENRL":[4 items
0:NULL
1:NULL
2:NULL
3:NULL
]
}
}
]
"standard":{2 items
"product":"sdtmig"
"version":"3-3"
}
"codelists":[]0 items
}