STUDYID,DOMAIN,USUBJID,AGSEQ,AGTRT,AGPRESP,AGOCCUR,AGDOSE,AGDOSU,AGTRTV,AGVAMT,AGVAMTU
XYZ,AG,XYZ-001-001,1,Tuberculin PPD-S,Y,Y,5,tuberculin unit,SALINE,0.1,mL
XYZ,AG,XYZ-001-002,1,Tuberculin PPD-S,Y,Y,5,tuberculin unit,SALINE,0.1,mL
XYZ,AG,XYZ-001-003,1,Tuberculin PPD-S,Y,Y,5,tuberculin unit,,,
