STUDYID,DOMAIN,USUBJID,LBSEQ,LBTESTCD,LBTEST,LBORRES,LBORRESU,LBSTRESC,LBSTRESN,LBSTRESU,LBORNRLO,LBORNRHI
123101,LB,ALB,1,ALB,Albumin,30,g/L,3.0,3.0,g/L,3.5,5
123101,LB,Prot,2,ALP,Alkaline Phosphatase,398,IU/L,398,398,IU/L,40,160
