{
    "rule": {
        "Authorities": [
            {
                "Organization": "CDISC",
                "Standards": [
                    {
                        "Name": "SDTMIG",
                        "References": [
                            {
                                "Citations": [
                                    {
                                        "Document": "IG v3.2",
                                        "Item": "Specification",
                                        "Section": "5",
                                        "Cited_Guidance": "Values should be \"SCRNFAIL\" for screen failures and \"NOTASSGN\" for subjects not assigned to treatment."
                                    }
                                ],
                                "Origin": "SDTM and SDTMIG Conformance Rules",
                                "Version": "2.0",
                                "Rule_Identifier": {
                                    "Id": "CG0127",
                                    "Version": "1"
                                }
                            }
                        ],
                        "Version": "3.2"
                    }
                ]
            }
        ],
        "Check": {
            "all": [
                {
                    "name": "ACTARMCD",
                    "operator": "is_contained_by",
                    "value": [
                        "SCRNFAIL",
                        "NOTASSGN"
                    ]
                },
                {
                    "name": "ACTARMCD",
                    "operator": "not_equal_to",
                    "value": "ARMCD"
                }
            ]
        },
        "Core": {
            "Id": "CDISC.SDTMIG.CG0127",
            "Status": "Draft",
            "Version": "1"
        },
        "Description": "Raise an error when ACTARMCD equals \"SCRFNFAIL\" or \"NOTASSGN\" but ARMCD doesn't equal ACTARMCD.",
        "Executability": "Fully Executable",
        "Outcome": {
            "Message": "ARMCD does not equal ACTARMCD when subject is either a screen failure or not assigned to treatment",
            "Output_Variables": [
                "ARMCD"
            ]
        },
        "Scope": {
            "Classes": {
                "Include": [
                    "SPECIAL PURPOSE"
                ]
            },
            "Domains": {
                "Include": [
                    "DM"
                ]
            }
        },
        "Sensitivity": "Record",
        "Rule_Type": "Record Data"
    },
    "datasets": [
        {
            "filename": "dm.xpt",
            "label": "Demographics",
            "domain": "DM",
            "variables": [
                {
                    "name": "STUDYID",
                    "label": "Study Identifier",
                    "type": "Char",
                    "length": 12
                },
                {
                    "name": "DOMAIN",
                    "label": "Domain Abbreviation",
                    "type": "Char",
                    "length": 2
                },
                {
                    "name": "USUBJID",
                    "label": "Unique Subject Identifier",
                    "type": "Char",
                    "length": 20
                },
                {
                    "name": "SUBJID",
                    "label": "Subject Identifier for the Study",
                    "type": "Char",
                    "length": 12
                },
                {
                    "name": "RFSTDTC",
                    "label": "Subject Reference Start Date/Time",
                    "type": "Char",
                    "length": 10
                },
                {
                    "name": "RFENDTC",
                    "label": "Subject Reference End Date/Time",
                    "type": "Char",
                    "length": 10
                },
                {
                    "name": "RFXSTDTC",
                    "label": "Date/Time of First Study Treatment",
                    "type": "Char",
                    "length": 10
                },
                {
                    "name": "RFXENDTC",
                    "label": "Date/Time of Last Study Treatment",
                    "type": "Char",
                    "length": 10
                },
                {
                    "name": "RFICDTC",
                    "label": "Date/Time of Informed Consent",
                    "type": "Char",
                    "length": 10
                },
                {
                    "name": "RFPENDTC",
                    "label": "Date/Time of End of Participation",
                    "type": "Char",
                    "length": 10
                },
                {
                    "name": "DTHDTC",
                    "label": "Date/Time of Death",
                    "type": "Char",
                    "length": 10
                },
                {
                    "name": "DTHFL",
                    "label": "Subject Death Flag",
                    "type": "Char",
                    "length": 1
                },
                {
                    "name": "SITEID",
                    "label": "Study Site Identifier",
                    "type": "Char",
                    "length": 3
                },
                {
                    "name": "BRTHDTC",
                    "label": "Date/Time of Birth",
                    "type": "Char",
                    "length": 10
                },
                {
                    "name": "AGE",
                    "label": "Age",
                    "type": "Num",
                    "length": 8
                },
                {
                    "name": "AGETXT",
                    "label": "Age Text",
                    "type": "Char",
                    "length": 5
                },
                {
                    "name": "AGEU",
                    "label": "Age Units",
                    "type": "Char",
                    "length": 5
                },
                {
                    "name": "SEX",
                    "label": "Sex",
                    "type": "Char",
                    "length": 1
                },
                {
                    "name": "RACE",
                    "label": "Race",
                    "type": "Char",
                    "length": 41
                },
                {
                    "name": "ETHNIC",
                    "label": "Ethnicity",
                    "type": "Char",
                    "length": 22
                },
                {
                    "name": "ARMCD",
                    "label": "Planned Arm Code",
                    "type": "Char",
                    "length": 8
                },
                {
                    "name": "ARM",
                    "label": "Description of Planned Arm",
                    "type": "Char",
                    "length": 28
                },
                {
                    "name": "ACTARMCD",
                    "label": "Actual Arm Code",
                    "type": "Char",
                    "length": 8
                },
                {
                    "name": "ACTARM",
                    "label": "Description of Actual Arm",
                    "type": "Char",
                    "length": 28
                },
                {
                    "name": "ARMNRS",
                    "label": "Reason Arm and/or Actual Arm is Null",
                    "type": "Char",
                    "length": 14
                },
                {
                    "name": "ACTARMUD",
                    "label": "Description of Unplanned Actual Arm",
                    "type": "Char",
                    "length": 200
                },
                {
                    "name": "COUNTRY",
                    "label": "Country",
                    "type": "Char",
                    "length": 3
                }
            ],
            "records": {
                "STUDYID": [
                    "ABC",
                    "ABC",
                    "ABC",
                    "ABC",
                    "ABC",
                    "ABC",
                    "ABC"
                ],
                "DOMAIN": [
                    "DM",
                    "DM",
                    "DM",
                    "DM",
                    "DM",
                    "DM",
                    "DM"
                ],
                "USUBJID": [
                    "015246-076-0003-00003",
                    "015246-300-0004-00002",
                    "015246-076-0003-00004",
                    "015246-076-0003-00005",
                    "015246-300-0004-00006",
                    "015246-300-0004-00008",
                    "015246-300-0004-00009"
                ],
                "SUBJID": [
                    "076000300003",
                    "300000400002",
                    "076000300004",
                    "076000300005",
                    "300000400006",
                    "300000400008",
                    "300000400009"
                ],
                "RFSTDTC": [
                    "2018-04-02T11:32",
                    "2018-05-08T11:20",
                    "2018-04-02T11:32",
                    "2018-04-02T11:32",
                    "2018-05-08T11:20",
                    "2018-05-08T11:20",
                    "2018-05-08T11:20"
                ],
                "RFENDTC": [
                    "2019-02-19T10:55",
                    "2018-08-29T10:35",
                    "2019-02-19T10:55",
                    "2019-02-19T10:55",
                    "2018-08-29T10:35",
                    "2018-08-29T10:35",
                    "2018-08-29T10:35"
                ],
                "RFXSTDTC": [
                    "2018-04-02T11:32",
                    "2018-05-08T11:20",
                    "2018-04-02T11:32",
                    "2018-04-02T11:32",
                    "2018-05-08T11:20",
                    "2018-05-08T11:20",
                    "2018-05-08T11:20"
                ],
                "RFXENDTC": [
                    "2019-02-19T10:55",
                    "2018-08-29T10:35",
                    "2019-02-19T10:55",
                    "2019-02-19T10:55",
                    "2018-08-29T10:35",
                    "2018-08-29T10:35",
                    "2018-08-29T10:35"
                ],
                "RFICDTC": [
                    "2018-03-06",
                    "2018-04-17",
                    "2018-03-06",
                    "2018-03-06",
                    "2018-04-17",
                    "2018-04-17",
                    "2018-04-17"
                ],
                "RFPENDTC": [
                    "2021-02-18",
                    "2018-09-04",
                    "2021-02-18",
                    "2021-02-18",
                    "2018-09-04",
                    "2018-09-04",
                    "2018-09-04"
                ],
                "DTHDTC": [
                    "2021-02-18",
                    "2018-09-04",
                    "2021-02-18",
                    "2021-02-18",
                    "2018-09-04",
                    "2018-09-04",
                    "2018-09-04"
                ],
                "DTHFL": [
                    "",
                    "N",
                    "",
                    "",
                    "N",
                    "N",
                    "N"
                ],
                "SITEID": [
                    "0760003",
                    "3000004",
                    "0760003",
                    "0760003",
                    "3000004",
                    "3000004",
                    "3000004"
                ],
                "BRTHDTC": [
                    "1940-01-14",
                    "1947-12-23",
                    "1940-01-14",
                    "1940-01-14",
                    "1947-12-23",
                    "1947-12-23",
                    "1947-12-23"
                ],
                "AGE": [
                    78,
                    70,
                    78,
                    78,
                    70,
                    70,
                    70
                ],
                "AGETXT": [
                    "",
                    "",
                    "",
                    "",
                    "",
                    "",
                    ""
                ],
                "AGEU": [
                    "YEARS",
                    "YEARS",
                    "YEARS",
                    "YEARS",
                    "YEARS",
                    "YEARS",
                    "YEARS"
                ],
                "SEX": [
                    "F",
                    "F",
                    "F",
                    "F",
                    "F",
                    "F",
                    "F"
                ],
                "RACE": [
                    "WHITE",
                    "WHITE",
                    "WHITE",
                    "WHITE",
                    "WHITE",
                    "WHITE",
                    "WHITE"
                ],
                "ETHNIC": [
                    "HISPANIC OR LATINO",
                    "NOT HISPANIC OR LATINO",
                    "HISPANIC OR LATINO",
                    "HISPANIC OR LATINO",
                    "NOT HISPANIC OR LATINO",
                    "NOT HISPANIC OR LATINO",
                    "NOT HISPANIC OR LATINO"
                ],
                "ARMCD": [
                    "SCRNFAIL",
                    "NOTASSGN",
                    "",
                    "DRUGA",
                    "",
                    "NOTASSGN",
                    "Drug A"
                ],
                "ARM": [
                    "Screen Failure",
                    "Not Assigned",
                    "Drug A",
                    "Drug A",
                    "",
                    "Not Assigned",
                    ""
                ],
                "ACTARMCD": [
                    "SCRNFAIL",
                    "NOTASSGN",
                    "DRUGA",
                    "DRUGB",
                    "",
                    "DRUGA",
                    ""
                ],
                "ACTARM": [
                    "Screen Failure",
                    "Not Assigned",
                    "Drug A",
                    "Drug B",
                    "",
                    "Drug A",
                    ""
                ],
                "ARMNRS": [
                    "",
                    "",
                    "",
                    "",
                    "",
                    "",
                    ""
                ],
                "ACTARMUD": [
                    "",
                    "",
                    "",
                    "",
                    "",
                    "",
                    ""
                ],
                "COUNTRY": [
                    "BRA",
                    "GRC",
                    "BRA",
                    "BRA",
                    "GRC",
                    "GRC",
                    "GRC"
                ]
            }
        }
    ],
    "standard": {
        "product": "sdtmig",
        "version": "3-2"
    },
    "codelists": []
}