{3 items
"datasets":[5 items
0:{5 items
"filename":"dm.xpt"
"label":"Demographics"
"domain":"DM"
"variables":[22 items
0:{4 items
"name":"STUDYID"
"label":"Study Identifier"
"type":"Char"
"length":10
}
1:{4 items
"name":"DOMAIN"
"label":"Domain Abbreviation"
"type":"Char"
"length":2
}
2:{4 items
"name":"USUBJID"
"label":"Unique Subject Identifier"
"type":"Char"
"length":14
}
3:{4 items
"name":"SUBJID"
"label":"Subject Identifier for the Study"
"type":"Char"
"length":3
}
4:{4 items
"name":"RFSTDTC"
"label":"Subject Reference Start Date/Time"
"type":"Char"
"length":10
}
5:{4 items
"name":"RFENDTC"
"label":"Subject Reference End Date/Time"
"type":"Char"
"length":10
}
6:{4 items
"name":"RFXSTDTC"
"label":"Date/Time of First Study Treatment"
"type":"Char"
"length":10
}
7:{4 items
"name":"RFXENDTC"
"label":"Date/Time of Last Study Treatment"
"type":"Char"
"length":10
}
8:{4 items
"name":"RFICDTC"
"label":"Date/Time of Informed Consent"
"type":"Char"
"length":10
}
9:{4 items
"name":"RFPENDTC"
"label":"Date/Time of End of Participation"
"type":"Char"
"length":10
}
10:{4 items
"name":"DTHDTC"
"label":"Date/Time of Death"
"type":"Char"
"length":1
}
11:{4 items
"name":"DTHFL"
"label":"Subject Death Flag"
"type":"Char"
"length":1
}
12:{4 items
"name":"SITEID"
"label":"Study Site Identifier"
"type":"Char"
"length":3
}
13:{4 items
"name":"AGE"
"label":"Age"
"type":"Num"
"length":8
}
14:{4 items
"name":"AGEU"
"label":"Age Units"
"type":"Char"
"length":5
}
15:{4 items
"name":"SEX"
"label":"Sex"
"type":"Char"
"length":1
}
16:{4 items
"name":"RACE"
"label":"Race"
"type":"Char"
"length":1
}
17:{4 items
"name":"ARMCD"
"label":"Planned Arm Code"
"type":"Char"
"length":1
}
18:{4 items
"name":"ARM"
"label":"Description of Planned Arm"
"type":"Char"
"length":13
}
19:{4 items
"name":"ACTARMCD"
"label":"Actual Arm Code"
"type":"Char"
"length":1
}
20:{4 items
"name":"ACTARM"
"label":"Description of Actual Arm"
"type":"Char"
"length":13
}
21:{4 items
"name":"COUNTRY"
"label":"Country"
"type":"Char"
"length":3
}
]
"records":{22 items
"STUDYID":[100 items
0:"CDISC-TEST"
1:"CDISC-TEST"
2:"CDISC-TEST"
3:"CDISC-TEST"
4:"CDISC-TEST"
5:"CDISC-TEST"
6:"CDISC-TEST"
7:"CDISC-TEST"
8:"CDISC-TEST"
9:"CDISC-TEST"
10:"CDISC-TEST"
11:"CDISC-TEST"
12:"CDISC-TEST"
13:"CDISC-TEST"
14:"CDISC-TEST"
15:"CDISC-TEST"
16:"CDISC-TEST"
17:"CDISC-TEST"
18:"CDISC-TEST"
19:"CDISC-TEST"
20:"CDISC-TEST"
21:"CDISC-TEST"
22:"CDISC-TEST"
23:"CDISC-TEST"
24:"CDISC-TEST"
25:"CDISC-TEST"
26:"CDISC-TEST"
27:"CDISC-TEST"
28:"CDISC-TEST"
29:"CDISC-TEST"
30:"CDISC-TEST"
31:"CDISC-TEST"
32:"CDISC-TEST"
33:"CDISC-TEST"
34:"CDISC-TEST"
35:"CDISC-TEST"
36:"CDISC-TEST"
37:"CDISC-TEST"
38:"CDISC-TEST"
39:"CDISC-TEST"
40:"CDISC-TEST"
41:"CDISC-TEST"
42:"CDISC-TEST"
43:"CDISC-TEST"
44:"CDISC-TEST"
45:"CDISC-TEST"
46:"CDISC-TEST"
47:"CDISC-TEST"
48:"CDISC-TEST"
49:"CDISC-TEST"
50:"CDISC-TEST"
51:"CDISC-TEST"
52:"CDISC-TEST"
53:"CDISC-TEST"
54:"CDISC-TEST"
55:"CDISC-TEST"
56:"CDISC-TEST"
57:"CDISC-TEST"
58:"CDISC-TEST"
59:"CDISC-TEST"
60:"CDISC-TEST"
61:"CDISC-TEST"
62:"CDISC-TEST"
63:"CDISC-TEST"
64:"CDISC-TEST"
65:"CDISC-TEST"
66:"CDISC-TEST"
67:"CDISC-TEST"
68:"CDISC-TEST"
69:"CDISC-TEST"
70:"CDISC-TEST"
71:"CDISC-TEST"
72:"CDISC-TEST"
73:"CDISC-TEST"
74:"CDISC-TEST"
75:"CDISC-TEST"
76:"CDISC-TEST"
77:"CDISC-TEST"
78:"CDISC-TEST"
79:"CDISC-TEST"
80:"CDISC-TEST"
81:"CDISC-TEST"
82:"CDISC-TEST"
83:"CDISC-TEST"
84:"CDISC-TEST"
85:"CDISC-TEST"
86:"CDISC-TEST"
87:"CDISC-TEST"
88:"CDISC-TEST"
89:"CDISC-TEST"
90:"CDISC-TEST"
91:"CDISC-TEST"
92:"CDISC-TEST"
93:"CDISC-TEST"
94:"CDISC-TEST"
95:"CDISC-TEST"
96:"CDISC-TEST"
97:"CDISC-TEST"
98:"CDISC-TEST"
99:"CDISC-TEST"
]
"DOMAIN":[100 items
0:"DM"
1:"DM"
2:"DM"
3:"DM"
4:"DM"
5:"DM"
6:"DM"
7:"DM"
8:"DM"
9:"DM"
10:"DM"
11:"DM"
12:"DM"
13:"DM"
14:"DM"
15:"DM"
16:"DM"
17:"DM"
18:"DM"
19:"DM"
20:"DM"
21:"DM"
22:"DM"
23:"DM"
24:"DM"
25:"DM"
26:"DM"
27:"DM"
28:"DM"
29:"DM"
30:"DM"
31:"DM"
32:"DM"
33:"DM"
34:"DM"
35:"DM"
36:"DM"
37:"DM"
38:"DM"
39:"DM"
40:"DM"
41:"DM"
42:"DM"
43:"DM"
44:"DM"
45:"DM"
46:"DM"
47:"DM"
48:"DM"
49:"DM"
50:"DM"
51:"DM"
52:"DM"
53:"DM"
54:"DM"
55:"DM"
56:"DM"
57:"DM"
58:"DM"
59:"DM"
60:"DM"
61:"DM"
62:"DM"
63:"DM"
64:"DM"
65:"DM"
66:"DM"
67:"DM"
68:"DM"
69:"DM"
70:"DM"
71:"DM"
72:"DM"
73:"DM"
74:"DM"
75:"DM"
76:"DM"
77:"DM"
78:"DM"
79:"DM"
80:"DM"
81:"DM"
82:"DM"
83:"DM"
84:"DM"
85:"DM"
86:"DM"
87:"DM"
88:"DM"
89:"DM"
90:"DM"
91:"DM"
92:"DM"
93:"DM"
94:"DM"
95:"DM"
96:"DM"
97:"DM"
98:"DM"
99:"DM"
]
"USUBJID":[100 items
0:"CDISC-TEST-001"
1:"CDISC-TEST-002"
2:"CDISC-TEST-003"
3:"CDISC-TEST-004"
4:"CDISC-TEST-005"
5:"CDISC-TEST-006"
6:"CDISC-TEST-007"
7:"CDISC-TEST-008"
8:"CDISC-TEST-009"
9:"CDISC-TEST-010"
10:"CDISC-TEST-011"
11:"CDISC-TEST-012"
12:"CDISC-TEST-013"
13:"CDISC-TEST-014"
14:"CDISC-TEST-015"
15:"CDISC-TEST-016"
16:"CDISC-TEST-017"
17:"CDISC-TEST-018"
18:"CDISC-TEST-019"
19:"CDISC-TEST-020"
20:"CDISC-TEST-021"
21:"CDISC-TEST-022"
22:"CDISC-TEST-023"
23:"CDISC-TEST-024"
24:"CDISC-TEST-025"
25:"CDISC-TEST-026"
26:"CDISC-TEST-027"
27:"CDISC-TEST-028"
28:"CDISC-TEST-029"
29:"CDISC-TEST-030"
30:"CDISC-TEST-031"
31:"CDISC-TEST-032"
32:"CDISC-TEST-033"
33:"CDISC-TEST-034"
34:"CDISC-TEST-035"
35:"CDISC-TEST-036"
36:"CDISC-TEST-037"
37:"CDISC-TEST-038"
38:"CDISC-TEST-039"
39:"CDISC-TEST-040"
40:"CDISC-TEST-041"
41:"CDISC-TEST-042"
42:"CDISC-TEST-043"
43:"CDISC-TEST-044"
44:"CDISC-TEST-045"
45:"CDISC-TEST-046"
46:"CDISC-TEST-047"
47:"CDISC-TEST-048"
48:"CDISC-TEST-049"
49:"CDISC-TEST-050"
50:"CDISC-TEST-051"
51:"CDISC-TEST-052"
52:"CDISC-TEST-053"
53:"CDISC-TEST-054"
54:"CDISC-TEST-055"
55:"CDISC-TEST-056"
56:"CDISC-TEST-057"
57:"CDISC-TEST-058"
58:"CDISC-TEST-059"
59:"CDISC-TEST-060"
60:"CDISC-TEST-061"
61:"CDISC-TEST-062"
62:"CDISC-TEST-063"
63:"CDISC-TEST-064"
64:"CDISC-TEST-065"
65:"CDISC-TEST-066"
66:"CDISC-TEST-067"
67:"CDISC-TEST-068"
68:"CDISC-TEST-069"
69:"CDISC-TEST-070"
70:"CDISC-TEST-071"
71:"CDISC-TEST-072"
72:"CDISC-TEST-073"
73:"CDISC-TEST-074"
74:"CDISC-TEST-075"
75:"CDISC-TEST-076"
76:"CDISC-TEST-077"
77:"CDISC-TEST-078"
78:"CDISC-TEST-079"
79:"CDISC-TEST-080"
80:"CDISC-TEST-081"
81:"CDISC-TEST-082"
82:"CDISC-TEST-083"
83:"CDISC-TEST-084"
84:"CDISC-TEST-085"
85:"CDISC-TEST-086"
86:"CDISC-TEST-087"
87:"CDISC-TEST-088"
88:"CDISC-TEST-089"
89:"CDISC-TEST-090"
90:"CDISC-TEST-091"
91:"CDISC-TEST-092"
92:"CDISC-TEST-093"
93:"CDISC-TEST-094"
94:"CDISC-TEST-095"
95:"CDISC-TEST-096"
96:"CDISC-TEST-097"
97:"CDISC-TEST-098"
98:"CDISC-TEST-099"
99:"CDISC-TEST-100"
]
"SUBJID":[100 items
0:"001"
1:"002"
2:"003"
3:"004"
4:"005"
5:"006"
6:"007"
7:"008"
8:"009"
9:"010"
10:"011"
11:"012"
12:"013"
13:"014"
14:"015"
15:"016"
16:"017"
17:"018"
18:"019"
19:"020"
20:"021"
21:"022"
22:"023"
23:"024"
24:"025"
25:"026"
26:"027"
27:"028"
28:"029"
29:"030"
30:"031"
31:"032"
32:"033"
33:"034"
34:"035"
35:"036"
36:"037"
37:"038"
38:"039"
39:"040"
40:"041"
41:"042"
42:"043"
43:"044"
44:"045"
45:"046"
46:"047"
47:"048"
48:"049"
49:"050"
50:"051"
51:"052"
52:"053"
53:"054"
54:"055"
55:"056"
56:"057"
57:"058"
58:"059"
59:"060"
60:"061"
61:"062"
62:"063"
63:"064"
64:"065"
65:"066"
66:"067"
67:"068"
68:"069"
69:"070"
70:"071"
71:"072"
72:"073"
73:"074"
74:"075"
75:"076"
76:"077"
77:"078"
78:"079"
79:"080"
80:"081"
81:"082"
82:"083"
83:"084"
84:"085"
85:"086"
86:"087"
87:"088"
88:"089"
89:"090"
90:"091"
91:"092"
92:"093"
93:"094"
94:"095"
95:"096"
96:"097"
97:"098"
98:"099"
99:"100"
]
"RFSTDTC":[100 items
0:"2019-03-12"
1:"2019-01-30"
2:"2019-01-26"
3:"2019-02-16"
4:"2019-03-02"
5:"2019-02-18"
6:"2019-02-25"
7:"2019-02-06"
8:"2019-01-25"
9:"2019-01-22"
10:"2019-02-10"
11:"2019-03-15"
12:"2019-03-10"
13:"2019-02-18"
14:"2019-01-29"
15:"2019-03-02"
16:"2019-02-09"
17:"2019-03-02"
18:"2019-03-07"
19:"2019-01-18"
20:"2019-01-17"
21:"2019-02-26"
22:"2019-03-13"
23:"2019-02-06"
24:"2019-02-08"
25:"2019-01-24"
26:"2019-01-29"
27:"2019-03-07"
28:"2019-01-20"
29:"2019-01-30"
30:"2019-01-24"
31:"2019-03-01"
32:"2019-02-25"
33:"2019-01-26"
34:"2019-01-25"
35:"2019-02-06"
36:"2019-02-20"
37:"2019-02-04"
38:"2019-03-09"
39:"2019-03-11"
40:"2019-02-25"
41:"2019-03-07"
42:"2019-02-05"
43:"2019-02-16"
44:"2019-02-15"
45:"2019-02-20"
46:"2019-02-12"
47:"2019-02-10"
48:"2019-02-09"
49:"2019-01-22"
50:"2019-03-13"
51:"2019-02-14"
52:"2019-03-15"
53:"2019-02-26"
54:"2019-03-06"
55:"2019-01-24"
56:"2019-02-26"
57:"2019-01-24"
58:"2019-02-17"
59:"2019-03-15"
60:"2019-02-08"
61:"2019-01-21"
62:"2019-03-05"
63:"2019-02-07"
64:"2019-01-31"
65:"2019-01-18"
66:"2019-02-04"
67:"2019-01-28"
68:"2019-01-16"
69:"2019-02-01"
70:"2019-01-24"
71:"2019-03-02"
72:"2019-03-06"
73:"2019-03-12"
74:"2019-03-17"
75:"2019-02-11"
76:"2019-02-21"
77:"2019-03-10"
78:"2019-01-24"
79:"2019-02-11"
80:"2019-02-20"
81:"2019-01-27"
82:"2019-01-19"
83:"2019-02-17"
84:"2019-02-07"
85:"2019-03-12"
86:"2019-03-17"
87:"2019-02-03"
88:"2019-01-28"
89:"2019-01-29"
90:"2019-01-31"
91:"2019-03-01"
92:"2019-02-13"
93:"2019-03-06"
94:"2019-01-22"
95:"2019-03-04"
96:"2019-01-24"
97:"2019-01-19"
98:"2019-03-02"
99:"2019-03-03"
]
"RFENDTC":[100 items
0:"2019-09-10"
1:"2019-07-31"
2:"2019-07-27"
3:"2019-08-17"
4:"2019-08-31"
5:"2019-08-19"
6:"2019-08-26"
7:"2019-08-07"
8:"2019-07-26"
9:"2019-07-23"
10:"2019-08-11"
11:"2019-09-13"
12:"2019-09-08"
13:"2019-08-19"
14:"2019-07-30"
15:"2019-08-31"
16:"2019-08-10"
17:"2019-08-31"
18:"2019-09-05"
19:"2019-07-19"
20:"2019-07-18"
21:"2019-08-27"
22:"2019-09-11"
23:"2019-08-07"
24:"2019-08-09"
25:"2019-07-25"
26:"2019-07-30"
27:"2019-09-05"
28:"2019-07-21"
29:"2019-07-31"
30:"2019-07-25"
31:"2019-08-30"
32:"2019-08-26"
33:"2019-07-27"
34:"2019-07-26"
35:"2019-08-07"
36:"2019-08-21"
37:"2019-08-05"
38:"2019-09-07"
39:"2019-09-09"
40:"2019-08-26"
41:"2019-09-05"
42:"2019-08-06"
43:"2019-08-17"
44:"2019-08-16"
45:"2019-08-21"
46:"2019-08-13"
47:"2019-08-11"
48:"2019-08-10"
49:"2019-07-23"
50:"2019-09-11"
51:"2019-08-15"
52:"2019-09-13"
53:"2019-08-27"
54:"2019-09-04"
55:"2019-07-25"
56:"2019-08-27"
57:"2019-07-25"
58:"2019-08-18"
59:"2019-09-13"
60:"2019-08-09"
61:"2019-07-22"
62:"2019-09-03"
63:"2019-08-08"
64:"2019-08-01"
65:"2019-07-19"
66:"2019-08-05"
67:"2019-07-29"
68:"2019-07-17"
69:"2019-08-02"
70:"2019-07-25"
71:"2019-08-31"
72:"2019-09-04"
73:"2019-09-10"
74:"2019-09-15"
75:"2019-08-12"
76:"2019-08-22"
77:"2019-09-08"
78:"2019-07-25"
79:"2019-08-12"
80:"2019-08-21"
81:"2019-07-28"
82:"2019-07-20"
83:"2019-08-18"
84:"2019-08-08"
85:"2019-09-10"
86:"2019-09-15"
87:"2019-08-04"
88:"2019-07-29"
89:"2019-07-30"
90:"2019-08-01"
91:"2019-08-30"
92:"2019-08-14"
93:"2019-09-04"
94:"2019-07-23"
95:"2019-09-02"
96:"2019-07-25"
97:"2019-07-20"
98:"2019-08-31"
99:"2019-09-01"
]
"RFXSTDTC":[100 items
0:"2019-03-12"
1:"2019-01-30"
2:"2019-01-26"
3:"2019-02-16"
4:"2019-03-02"
5:"2019-02-18"
6:"2019-02-25"
7:"2019-02-06"
8:"2019-01-25"
9:"2019-01-22"
10:"2019-02-10"
11:"2019-03-15"
12:"2019-03-10"
13:"2019-02-18"
14:"2019-01-29"
15:"2019-03-02"
16:"2019-02-09"
17:"2019-03-02"
18:"2019-03-07"
19:"2019-01-18"
20:"2019-01-17"
21:"2019-02-26"
22:"2019-03-13"
23:"2019-02-06"
24:"2019-02-08"
25:"2019-01-24"
26:"2019-01-29"
27:"2019-03-07"
28:"2019-01-20"
29:"2019-01-30"
30:"2019-01-24"
31:"2019-03-01"
32:"2019-02-25"
33:"2019-01-26"
34:"2019-01-25"
35:"2019-02-06"
36:"2019-02-20"
37:"2019-02-04"
38:"2019-03-09"
39:"2019-03-11"
40:"2019-02-25"
41:"2019-03-07"
42:"2019-02-05"
43:"2019-02-16"
44:"2019-02-15"
45:"2019-02-20"
46:"2019-02-12"
47:"2019-02-10"
48:"2019-02-09"
49:"2019-01-22"
50:"2019-03-13"
51:"2019-02-14"
52:"2019-03-15"
53:"2019-02-26"
54:"2019-03-06"
55:"2019-01-24"
56:"2019-02-26"
57:"2019-01-24"
58:"2019-02-17"
59:"2019-03-15"
60:"2019-02-08"
61:"2019-01-21"
62:"2019-03-05"
63:"2019-02-07"
64:"2019-01-31"
65:"2019-01-18"
66:"2019-02-04"
67:"2019-01-28"
68:"2019-01-16"
69:"2019-02-01"
70:"2019-01-24"
71:"2019-03-02"
72:"2019-03-06"
73:"2019-03-12"
74:"2019-03-17"
75:"2019-02-11"
76:"2019-02-21"
77:"2019-03-10"
78:"2019-01-24"
79:"2019-02-11"
80:"2019-02-20"
81:"2019-01-27"
82:"2019-01-19"
83:"2019-02-17"
84:"2019-02-07"
85:"2019-03-12"
86:"2019-03-17"
87:"2019-02-03"
88:"2019-01-28"
89:"2019-01-29"
90:"2019-01-31"
91:"2019-03-01"
92:"2019-02-13"
93:"2019-03-06"
94:"2019-01-22"
95:"2019-03-04"
96:"2019-01-24"
97:"2019-01-19"
98:"2019-03-02"
99:"2019-03-03"
]
"RFXENDTC":[100 items
0:"2019-09-10"
1:"2019-07-31"
2:"2019-07-27"
3:"2019-08-17"
4:"2019-08-31"
5:"2019-08-19"
6:"2019-08-26"
7:"2019-08-07"
8:"2019-07-26"
9:"2019-07-23"
10:"2019-08-11"
11:"2019-09-13"
12:"2019-09-08"
13:"2019-08-19"
14:"2019-07-30"
15:"2019-08-31"
16:"2019-08-10"
17:"2019-08-31"
18:"2019-09-05"
19:"2019-07-19"
20:"2019-07-18"
21:"2019-08-27"
22:"2019-09-11"
23:"2019-08-07"
24:"2019-08-09"
25:"2019-07-25"
26:"2019-07-30"
27:"2019-09-05"
28:"2019-07-21"
29:"2019-07-31"
30:"2019-07-25"
31:"2019-08-30"
32:"2019-08-26"
33:"2019-07-27"
34:"2019-07-26"
35:"2019-08-07"
36:"2019-08-21"
37:"2019-08-05"
38:"2019-09-07"
39:"2019-09-09"
40:"2019-08-26"
41:"2019-09-05"
42:"2019-08-06"
43:"2019-08-17"
44:"2019-08-16"
45:"2019-08-21"
46:"2019-08-13"
47:"2019-08-11"
48:"2019-08-10"
49:"2019-07-23"
50:"2019-09-11"
51:"2019-08-15"
52:"2019-09-13"
53:"2019-08-27"
54:"2019-09-04"
55:"2019-07-25"
56:"2019-08-27"
57:"2019-07-25"
58:"2019-08-18"
59:"2019-09-13"
60:"2019-08-09"
61:"2019-07-22"
62:"2019-09-03"
63:"2019-08-08"
64:"2019-08-01"
65:"2019-07-19"
66:"2019-08-05"
67:"2019-07-29"
68:"2019-07-17"
69:"2019-08-02"
70:"2019-07-25"
71:"2019-08-31"
72:"2019-09-04"
73:"2019-09-10"
74:"2019-09-15"
75:"2019-08-12"
76:"2019-08-22"
77:"2019-09-08"
78:"2019-07-25"
79:"2019-08-12"
80:"2019-08-21"
81:"2019-07-28"
82:"2019-07-20"
83:"2019-08-18"
84:"2019-08-08"
85:"2019-09-10"
86:"2019-09-15"
87:"2019-08-04"
88:"2019-07-29"
89:"2019-07-30"
90:"2019-08-01"
91:"2019-08-30"
92:"2019-08-14"
93:"2019-09-04"
94:"2019-07-23"
95:"2019-09-02"
96:"2019-07-25"
97:"2019-07-20"
98:"2019-08-31"
99:"2019-09-01"
]
"RFICDTC":[100 items
0:"2019-02-25"
1:"2019-01-15"
2:"2019-01-11"
3:"2019-02-01"
4:"2019-02-15"
5:"2019-02-03"
6:"2019-02-10"
7:"2019-01-22"
8:"2019-01-10"
9:"2019-01-07"
10:"2019-01-26"
11:"2019-02-28"
12:"2019-02-23"
13:"2019-02-03"
14:"2019-01-14"
15:"2019-02-15"
16:"2019-01-25"
17:"2019-02-15"
18:"2019-02-20"
19:"2019-01-03"
20:"2019-01-02"
21:"2019-02-11"
22:"2019-02-26"
23:"2019-01-22"
24:"2019-01-24"
25:"2019-01-09"
26:"2019-01-14"
27:"2019-02-20"
28:"2019-01-05"
29:"2019-01-15"
30:"2019-01-09"
31:"2019-02-14"
32:"2019-02-10"
33:"2019-01-11"
34:"2019-01-10"
35:"2019-01-22"
36:"2019-02-05"
37:"2019-01-20"
38:"2019-02-22"
39:"2019-02-24"
40:"2019-02-10"
41:"2019-02-20"
42:"2019-01-21"
43:"2019-02-01"
44:"2019-01-31"
45:"2019-02-05"
46:"2019-01-28"
47:"2019-01-26"
48:"2019-01-25"
49:"2019-01-07"
50:"2019-02-26"
51:"2019-01-30"
52:"2019-02-28"
53:"2019-02-11"
54:"2019-02-19"
55:"2019-01-09"
56:"2019-02-11"
57:"2019-01-09"
58:"2019-02-02"
59:"2019-02-28"
60:"2019-01-24"
61:"2019-01-06"
62:"2019-02-18"
63:"2019-01-23"
64:"2019-01-16"
65:"2019-01-03"
66:"2019-01-20"
67:"2019-01-13"
68:"2019-01-01"
69:"2019-01-17"
70:"2019-01-09"
71:"2019-02-15"
72:"2019-02-19"
73:"2019-02-25"
74:"2019-03-02"
75:"2019-01-27"
76:"2019-02-06"
77:"2019-02-23"
78:"2019-01-09"
79:"2019-01-27"
80:"2019-02-05"
81:"2019-01-12"
82:"2019-01-04"
83:"2019-02-02"
84:"2019-01-23"
85:"2019-02-25"
86:"2019-03-02"
87:"2019-01-19"
88:"2019-01-13"
89:"2019-01-14"
90:"2019-01-16"
91:"2019-02-14"
92:"2019-01-29"
93:"2019-02-19"
94:"2019-01-07"
95:"2019-02-17"
96:"2019-01-09"
97:"2019-01-04"
98:"2019-02-15"
99:"2019-02-16"
]
"RFPENDTC":[100 items
0:"2019-10-10"
1:"2019-08-30"
2:"2019-08-26"
3:"2019-09-16"
4:"2019-09-30"
5:"2019-09-18"
6:"2019-09-25"
7:"2019-09-06"
8:"2019-08-25"
9:"2019-08-22"
10:"2019-09-10"
11:"2019-10-13"
12:"2019-10-08"
13:"2019-09-18"
14:"2019-08-29"
15:"2019-09-30"
16:"2019-09-09"
17:"2019-09-30"
18:"2019-10-05"
19:"2019-08-18"
20:"2019-08-17"
21:"2019-09-26"
22:"2019-10-11"
23:"2019-09-06"
24:"2019-09-08"
25:"2019-08-24"
26:"2019-08-29"
27:"2019-10-05"
28:"2019-08-20"
29:"2019-08-30"
30:"2019-08-24"
31:"2019-09-29"
32:"2019-09-25"
33:"2019-08-26"
34:"2019-08-25"
35:"2019-09-06"
36:"2019-09-20"
37:"2019-09-04"
38:"2019-10-07"
39:"2019-10-09"
40:"2019-09-25"
41:"2019-10-05"
42:"2019-09-05"
43:"2019-09-16"
44:"2019-09-15"
45:"2019-09-20"
46:"2019-09-12"
47:"2019-09-10"
48:"2019-09-09"
49:"2019-08-22"
50:"2019-10-11"
51:"2019-09-14"
52:"2019-10-13"
53:"2019-09-26"
54:"2019-10-04"
55:"2019-08-24"
56:"2019-09-26"
57:"2019-08-24"
58:"2019-09-17"
59:"2019-10-13"
60:"2019-09-08"
61:"2019-08-21"
62:"2019-10-03"
63:"2019-09-07"
64:"2019-08-31"
65:"2019-08-18"
66:"2019-09-04"
67:"2019-08-28"
68:"2019-08-16"
69:"2019-09-01"
70:"2019-08-24"
71:"2019-09-30"
72:"2019-10-04"
73:"2019-10-10"
74:"2019-10-15"
75:"2019-09-11"
76:"2019-09-21"
77:"2019-10-08"
78:"2019-08-24"
79:"2019-09-11"
80:"2019-09-20"
81:"2019-08-27"
82:"2019-08-19"
83:"2019-09-17"
84:"2019-09-07"
85:"2019-10-10"
86:"2019-10-15"
87:"2019-09-03"
88:"2019-08-28"
89:"2019-08-29"
90:"2019-08-31"
91:"2019-09-29"
92:"2019-09-13"
93:"2019-10-04"
94:"2019-08-22"
95:"2019-10-02"
96:"2019-08-24"
97:"2019-08-19"
98:"2019-09-30"
99:"2019-10-01"
]
"DTHDTC":[100 items
0:""
1:""
2:""
3:""
4:""
5:""
6:""
7:""
8:""
9:""
10:""
11:""
12:""
13:""
14:""
15:""
16:""
17:""
18:""
19:""
20:""
21:""
22:""
23:""
24:""
25:""
26:""
27:""
28:""
29:""
30:""
31:""
32:""
33:""
34:""
35:""
36:""
37:""
38:""
39:""
40:""
41:""
42:""
43:""
44:""
45:""
46:""
47:""
48:""
49:""
50:""
51:""
52:""
53:""
54:""
55:""
56:""
57:""
58:""
59:""
60:""
61:""
62:""
63:""
64:""
65:""
66:""
67:""
68:""
69:""
70:""
71:""
72:""
73:""
74:""
75:""
76:""
77:""
78:""
79:""
80:""
81:""
82:""
83:""
84:""
85:""
86:""
87:""
88:""
89:""
90:""
91:""
92:""
93:""
94:""
95:""
96:""
97:""
98:""
99:""
]
"DTHFL":[100 items
0:""
1:""
2:""
3:""
4:""
5:""
6:""
7:""
8:""
9:""
10:""
11:""
12:""
13:""
14:""
15:""
16:""
17:""
18:""
19:""
20:""
21:""
22:""
23:""
24:""
25:""
26:""
27:""
28:""
29:""
30:""
31:""
32:""
33:""
34:""
35:""
36:""
37:""
38:""
39:""
40:""
41:""
42:""
43:""
44:""
45:""
46:""
47:""
48:""
49:""
50:""
51:""
52:""
53:""
54:""
55:""
56:""
57:""
58:""
59:""
60:""
61:""
62:""
63:""
64:""
65:""
66:""
67:""
68:""
69:""
70:""
71:""
72:""
73:""
74:""
75:""
76:""
77:""
78:""
79:""
80:""
81:""
82:""
83:""
84:""
85:""
86:""
87:""
88:""
89:""
90:""
91:""
92:""
93:""
94:""
95:""
96:""
97:""
98:""
99:""
]
"SITEID":[100 items
0:"102"
1:"103"
2:"102"
3:"102"
4:"103"
5:"102"
6:"102"
7:"102"
8:"102"
9:"103"
10:"101"
11:"102"
12:"103"
13:"102"
14:"101"
15:"102"
16:"102"
17:"103"
18:"101"
19:"103"
20:"101"
21:"103"
22:"103"
23:"101"
24:"101"
25:"101"
26:"101"
27:"101"
28:"103"
29:"103"
30:"101"
31:"102"
32:"101"
33:"103"
34:"101"
35:"103"
36:"101"
37:"101"
38:"103"
39:"101"
40:"102"
41:"103"
42:"103"
43:"103"
44:"101"
45:"101"
46:"101"
47:"101"
48:"103"
49:"102"
50:"101"
51:"103"
52:"101"
53:"103"
54:"103"
55:"101"
56:"101"
57:"103"
58:"102"
59:"101"
60:"103"
61:"102"
62:"103"
63:"103"
64:"101"
65:"102"
66:"101"
67:"103"
68:"102"
69:"101"
70:"101"
71:"103"
72:"101"
73:"103"
74:"103"
75:"102"
76:"102"
77:"101"
78:"101"
79:"103"
80:"101"
81:"103"
82:"103"
83:"102"
84:"102"
85:"101"
86:"102"
87:"103"
88:"102"
89:"102"
90:"101"
91:"103"
92:"102"
93:"102"
94:"102"
95:"101"
96:"101"
97:"103"
98:"103"
99:"102"
]
"AGE":[100 items
0:26
1:34
2:57
3:31
4:21
5:52
6:57
7:50
8:48
9:32
10:63
11:57
12:31
13:56
14:21
15:51
16:48
17:34
18:19
19:33
20:55
21:38
22:61
23:29
24:57
25:28
26:38
27:53
28:56
29:30
30:39
31:27
32:23
33:40
34:61
35:29
36:32
37:42
38:30
39:23
40:47
41:53
42:22
43:41
44:30
45:56
46:28
47:22
48:50
49:51
50:25
51:37
52:32
53:39
54:25
55:41
56:36
57:55
58:59
59:24
60:38
61:35
62:42
63:45
64:38
65:28
66:22
67:19
68:37
69:46
70:36
71:44
72:63
73:31
74:60
75:41
76:46
77:24
78:38
79:32
80:43
81:33
82:43
83:39
84:46
85:59
86:33
87:25
88:26
89:31
90:18
91:34
92:56
93:24
94:42
95:31
96:31
97:19
98:21
99:60
]
"AGEU":[100 items
0:"YEARS"
1:"YEARS"
2:"YEARS"
3:"YEARS"
4:"YEARS"
5:"YEARS"
6:"YEARS"
7:"YEARS"
8:"YEARS"
9:"YEARS"
10:"YEARS"
11:"YEARS"
12:"YEARS"
13:"YEARS"
14:"YEARS"
15:"YEARS"
16:"YEARS"
17:"YEARS"
18:"YEARS"
19:"YEARS"
20:"YEARS"
21:"YEARS"
22:"YEARS"
23:"YEARS"
24:"YEARS"
25:"YEARS"
26:"YEARS"
27:"YEARS"
28:"YEARS"
29:"YEARS"
30:"YEARS"
31:"YEARS"
32:"YEARS"
33:"YEARS"
34:"YEARS"
35:"YEARS"
36:"YEARS"
37:"YEARS"
38:"YEARS"
39:"YEARS"
40:"YEARS"
41:"YEARS"
42:"YEARS"
43:"YEARS"
44:"YEARS"
45:"YEARS"
46:"YEARS"
47:"YEARS"
48:"YEARS"
49:"YEARS"
50:"YEARS"
51:"YEARS"
52:"YEARS"
53:"YEARS"
54:"YEARS"
55:"YEARS"
56:"YEARS"
57:"YEARS"
58:"YEARS"
59:"YEARS"
60:"YEARS"
61:"YEARS"
62:"YEARS"
63:"YEARS"
64:"YEARS"
65:"YEARS"
66:"YEARS"
67:"YEARS"
68:"YEARS"
69:"YEARS"
70:"YEARS"
71:"YEARS"
72:"YEARS"
73:"YEARS"
74:"YEARS"
75:"YEARS"
76:"YEARS"
77:"YEARS"
78:"YEARS"
79:"YEARS"
80:"YEARS"
81:"YEARS"
82:"YEARS"
83:"YEARS"
84:"YEARS"
85:"YEARS"
86:"YEARS"
87:"YEARS"
88:"YEARS"
89:"YEARS"
90:"YEARS"
91:"YEARS"
92:"YEARS"
93:"YEARS"
94:"YEARS"
95:"YEARS"
96:"YEARS"
97:"YEARS"
98:"YEARS"
99:"YEARS"
]
"SEX":[100 items
0:"F"
1:"M"
2:"F"
3:"F"
4:"F"
5:"F"
6:"M"
7:"F"
8:"M"
9:"M"
10:"M"
11:"F"
12:"F"
13:"M"
14:"M"
15:"M"
16:"M"
17:"F"
18:"F"
19:"M"
20:"F"
21:"F"
22:"F"
23:"F"
24:"M"
25:"F"
26:"M"
27:"F"
28:"M"
29:"M"
30:"F"
31:"M"
32:"M"
33:"F"
34:"F"
35:"M"
36:"F"
37:"F"
38:"F"
39:"F"
40:"F"
41:"M"
42:"M"
43:"F"
44:"F"
45:"M"
46:"F"
47:"M"
48:"F"
49:"F"
50:"M"
51:"M"
52:"F"
53:"M"
54:"F"
55:"F"
56:"F"
57:"M"
58:"F"
59:"M"
60:"F"
61:"F"
62:"F"
63:"M"
64:"M"
65:"M"
66:"M"
67:"M"
68:"F"
69:"M"
70:"F"
71:"F"
72:"M"
73:"M"
74:"F"
75:"F"
76:"F"
77:"F"
78:"F"
79:"M"
80:"F"
81:"F"
82:"M"
83:"F"
84:"F"
85:"F"
86:"M"
87:"M"
88:"F"
89:"M"
90:"M"
91:"M"
92:"M"
93:"F"
94:"F"
95:"M"
96:"M"
97:"M"
98:"F"
99:"F"
]
"RACE":[100 items
0:""
1:""
2:""
3:""
4:""
5:""
6:""
7:""
8:""
9:""
10:""
11:""
12:""
13:""
14:""
15:""
16:""
17:""
18:""
19:""
20:""
21:""
22:""
23:""
24:""
25:""
26:""
27:""
28:""
29:""
30:""
31:""
32:""
33:""
34:""
35:""
36:""
37:""
38:""
39:""
40:""
41:""
42:""
43:""
44:""
45:""
46:""
47:""
48:""
49:""
50:""
51:""
52:""
53:""
54:""
55:""
56:""
57:""
58:""
59:""
60:""
61:""
62:""
63:""
64:""
65:""
66:""
67:""
68:""
69:""
70:""
71:""
72:""
73:""
74:""
75:""
76:""
77:""
78:""
79:""
80:""
81:""
82:""
83:""
84:""
85:""
86:""
87:""
88:""
89:""
90:""
91:""
92:""
93:""
94:""
95:""
96:""
97:""
98:""
99:""
]
"ARMCD":[100 items
0:"A"
1:"A"
2:"B"
3:"A"
4:"A"
5:"A"
6:"A"
7:"A"
8:"B"
9:"B"
10:"A"
11:"A"
12:"B"
13:"A"
14:"B"
15:"A"
16:"B"
17:"B"
18:"A"
19:"B"
20:"B"
21:"B"
22:"B"
23:"A"
24:"A"
25:"B"
26:"A"
27:"A"
28:"A"
29:"A"
30:"B"
31:"B"
32:"B"
33:"B"
34:"B"
35:"B"
36:"A"
37:"B"
38:"B"
39:"B"
40:"A"
41:"A"
42:"B"
43:"B"
44:"B"
45:"A"
46:"B"
47:"B"
48:"A"
49:"A"
50:"A"
51:"A"
52:"B"
53:"B"
54:"B"
55:"B"
56:"B"
57:"A"
58:"A"
59:"B"
60:"B"
61:"A"
62:"A"
63:"A"
64:"B"
65:"B"
66:"B"
67:"B"
68:"B"
69:"B"
70:"A"
71:"A"
72:"B"
73:"B"
74:"B"
75:"B"
76:"A"
77:"B"
78:"A"
79:"B"
80:"A"
81:"A"
82:"A"
83:"B"
84:"A"
85:"A"
86:"B"
87:"B"
88:"B"
89:"B"
90:"B"
91:"B"
92:"B"
93:"A"
94:"A"
95:"A"
96:"B"
97:"B"
98:"B"
99:"B"
]
"ARM":[100 items
0:"HUMAN INSULIN"
1:"HUMAN INSULIN"
2:"METFORMIN"
3:"HUMAN INSULIN"
4:"HUMAN INSULIN"
5:"HUMAN INSULIN"
6:"HUMAN INSULIN"
7:"HUMAN INSULIN"
8:"METFORMIN"
9:"METFORMIN"
10:"HUMAN INSULIN"
11:"HUMAN INSULIN"
12:"METFORMIN"
13:"HUMAN INSULIN"
14:"METFORMIN"
15:"HUMAN INSULIN"
16:"METFORMIN"
17:"METFORMIN"
18:"HUMAN INSULIN"
19:"METFORMIN"
20:"METFORMIN"
21:"METFORMIN"
22:"METFORMIN"
23:"HUMAN INSULIN"
24:"HUMAN INSULIN"
25:"METFORMIN"
26:"HUMAN INSULIN"
27:"HUMAN INSULIN"
28:"HUMAN INSULIN"
29:"HUMAN INSULIN"
30:"METFORMIN"
31:"METFORMIN"
32:"METFORMIN"
33:"METFORMIN"
34:"METFORMIN"
35:"METFORMIN"
36:"HUMAN INSULIN"
37:"METFORMIN"
38:"METFORMIN"
39:"METFORMIN"
40:"HUMAN INSULIN"
41:"HUMAN INSULIN"
42:"METFORMIN"
43:"METFORMIN"
44:"METFORMIN"
45:"HUMAN INSULIN"
46:"METFORMIN"
47:"METFORMIN"
48:"HUMAN INSULIN"
49:"HUMAN INSULIN"
50:"HUMAN INSULIN"
51:"HUMAN INSULIN"
52:"METFORMIN"
53:"METFORMIN"
54:"METFORMIN"
55:"METFORMIN"
56:"METFORMIN"
57:"HUMAN INSULIN"
58:"HUMAN INSULIN"
59:"METFORMIN"
60:"METFORMIN"
61:"HUMAN INSULIN"
62:"HUMAN INSULIN"
63:"HUMAN INSULIN"
64:"METFORMIN"
65:"METFORMIN"
66:"METFORMIN"
67:"METFORMIN"
68:"METFORMIN"
69:"METFORMIN"
70:"HUMAN INSULIN"
71:"HUMAN INSULIN"
72:"METFORMIN"
73:"METFORMIN"
74:"METFORMIN"
75:"METFORMIN"
76:"HUMAN INSULIN"
77:"METFORMIN"
78:"HUMAN INSULIN"
79:"METFORMIN"
80:"HUMAN INSULIN"
81:"HUMAN INSULIN"
82:"HUMAN INSULIN"
83:"METFORMIN"
84:"HUMAN INSULIN"
85:"HUMAN INSULIN"
86:"METFORMIN"
87:"METFORMIN"
88:"METFORMIN"
89:"METFORMIN"
90:"METFORMIN"
91:"METFORMIN"
92:"METFORMIN"
93:"HUMAN INSULIN"
94:"HUMAN INSULIN"
95:"HUMAN INSULIN"
96:"METFORMIN"
97:"METFORMIN"
98:"METFORMIN"
99:"METFORMIN"
]
"ACTARMCD":[100 items
0:"A"
1:"A"
2:"B"
3:"A"
4:"A"
5:"A"
6:"A"
7:"A"
8:"B"
9:"B"
10:"A"
11:"A"
12:"B"
13:"A"
14:"B"
15:"A"
16:"B"
17:"B"
18:"A"
19:"B"
20:"B"
21:"B"
22:"B"
23:"A"
24:"A"
25:"B"
26:"A"
27:"A"
28:"A"
29:"A"
30:"B"
31:"B"
32:"B"
33:"B"
34:"B"
35:"B"
36:"A"
37:"B"
38:"B"
39:"B"
40:"A"
41:"A"
42:"B"
43:"B"
44:"B"
45:"A"
46:"B"
47:"B"
48:"A"
49:"A"
50:"A"
51:"A"
52:"B"
53:"B"
54:"B"
55:"B"
56:"B"
57:"A"
58:"A"
59:"B"
60:"B"
61:"A"
62:"A"
63:"A"
64:"B"
65:"B"
66:"B"
67:"B"
68:"B"
69:"B"
70:"A"
71:"A"
72:"B"
73:"B"
74:"B"
75:"B"
76:"A"
77:"B"
78:"A"
79:"B"
80:"A"
81:"A"
82:"A"
83:"B"
84:"A"
85:"A"
86:"B"
87:"B"
88:"B"
89:"B"
90:"B"
91:"B"
92:"B"
93:"A"
94:"A"
95:"A"
96:"B"
97:"B"
98:"B"
99:"B"
]
"ACTARM":[100 items
0:"HUMAN INSULIN"
1:"HUMAN INSULIN"
2:"METFORMIN"
3:"HUMAN INSULIN"
4:"HUMAN INSULIN"
5:"HUMAN INSULIN"
6:"HUMAN INSULIN"
7:"HUMAN INSULIN"
8:"METFORMIN"
9:"METFORMIN"
10:"HUMAN INSULIN"
11:"HUMAN INSULIN"
12:"METFORMIN"
13:"HUMAN INSULIN"
14:"METFORMIN"
15:"HUMAN INSULIN"
16:"METFORMIN"
17:"METFORMIN"
18:"HUMAN INSULIN"
19:"METFORMIN"
20:"METFORMIN"
21:"METFORMIN"
22:"METFORMIN"
23:"HUMAN INSULIN"
24:"HUMAN INSULIN"
25:"METFORMIN"
26:"HUMAN INSULIN"
27:"HUMAN INSULIN"
28:"HUMAN INSULIN"
29:"HUMAN INSULIN"
30:"METFORMIN"
31:"METFORMIN"
32:"METFORMIN"
33:"METFORMIN"
34:"METFORMIN"
35:"METFORMIN"
36:"HUMAN INSULIN"
37:"METFORMIN"
38:"METFORMIN"
39:"METFORMIN"
40:"HUMAN INSULIN"
41:"HUMAN INSULIN"
42:"METFORMIN"
43:"METFORMIN"
44:"METFORMIN"
45:"HUMAN INSULIN"
46:"METFORMIN"
47:"METFORMIN"
48:"HUMAN INSULIN"
49:"HUMAN INSULIN"
50:"HUMAN INSULIN"
51:"HUMAN INSULIN"
52:"METFORMIN"
53:"METFORMIN"
54:"METFORMIN"
55:"METFORMIN"
56:"METFORMIN"
57:"HUMAN INSULIN"
58:"HUMAN INSULIN"
59:"METFORMIN"
60:"METFORMIN"
61:"HUMAN INSULIN"
62:"HUMAN INSULIN"
63:"HUMAN INSULIN"
64:"METFORMIN"
65:"METFORMIN"
66:"METFORMIN"
67:"METFORMIN"
68:"METFORMIN"
69:"METFORMIN"
70:"HUMAN INSULIN"
71:"HUMAN INSULIN"
72:"METFORMIN"
73:"METFORMIN"
74:"METFORMIN"
75:"METFORMIN"
76:"HUMAN INSULIN"
77:"METFORMIN"
78:"HUMAN INSULIN"
79:"METFORMIN"
80:"HUMAN INSULIN"
81:"HUMAN INSULIN"
82:"HUMAN INSULIN"
83:"METFORMIN"
84:"HUMAN INSULIN"
85:"HUMAN INSULIN"
86:"METFORMIN"
87:"METFORMIN"
88:"METFORMIN"
89:"METFORMIN"
90:"METFORMIN"
91:"METFORMIN"
92:"METFORMIN"
93:"HUMAN INSULIN"
94:"HUMAN INSULIN"
95:"HUMAN INSULIN"
96:"METFORMIN"
97:"METFORMIN"
98:"METFORMIN"
99:"METFORMIN"
]
"COUNTRY":[100 items
0:"FRA"
1:"JPN"
2:"FRA"
3:"FRA"
4:"JPN"
5:"FRA"
6:"FRA"
7:"FRA"
8:"FRA"
9:"JPN"
10:"USA"
11:"FRA"
12:"JPN"
13:"FRA"
14:"USA"
15:"FRA"
16:"FRA"
17:"JPN"
18:"USA"
19:"JPN"
20:"USA"
21:"JPN"
22:"JPN"
23:"USA"
24:"USA"
25:"USA"
26:"USA"
27:"USA"
28:"JPN"
29:"JPN"
30:"USA"
31:"FRA"
32:"USA"
33:"JPN"
34:"USA"
35:"JPN"
36:"USA"
37:"USA"
38:"JPN"
39:"USA"
40:"FRA"
41:"JPN"
42:"JPN"
43:"JPN"
44:"USA"
45:"USA"
46:"USA"
47:"USA"
48:"JPN"
49:"FRA"
50:"USA"
51:"JPN"
52:"USA"
53:"JPN"
54:"JPN"
55:"USA"
56:"USA"
57:"JPN"
58:"FRA"
59:"USA"
60:"JPN"
61:"FRA"
62:"JPN"
63:"JPN"
64:"USA"
65:"FRA"
66:"USA"
67:"JPN"
68:"FRA"
69:"USA"
70:"USA"
71:"JPN"
72:"USA"
73:"JPN"
74:"JPN"
75:"FRA"
76:"FRA"
77:"USA"
78:"USA"
79:"JPN"
80:"USA"
81:"JPN"
82:"JPN"
83:"FRA"
84:"FRA"
85:"USA"
86:"FRA"
87:"JPN"
88:"FRA"
89:"FRA"
90:"USA"
91:"JPN"
92:"FRA"
93:"FRA"
94:"FRA"
95:"USA"
96:"USA"
97:"JPN"
98:"JPN"
99:"FRA"
]
}
}
1:{5 items
"filename":"suppae.xpt"
"label":"Supplemental Qualifiers for AE"
"domain":"SUPPAE"
"variables":[10 items
0:{4 items
"name":"STUDYID"
"label":"Study Identifier"
"type":"Char"
"length":10
}
1:{4 items
"name":"RDOMAIN"
"label":"Related Domain Abbreviation"
"type":"Char"
"length":2
}
2:{4 items
"name":"USUBJID"
"label":"Unique Subject Identifier"
"type":"Char"
"length":14
}
3:{4 items
"name":"IDVAR"
"label":"Identifying Variable"
"type":"Char"
"length":6
}
4:{4 items
"name":"IDVARVAL"
"label":"Identifying Variable Value"
"type":"Char"
"length":4
}
5:{4 items
"name":"QNAM"
"label":"Qualifier Variable Name"
"type":"Char"
"length":7
}
6:{4 items
"name":"QLABEL"
"label":"Qualifier Variable Label"
"type":"Char"
"length":18
}
7:{4 items
"name":"QVAL"
"label":"Data Value"
"type":"Char"
"length":19
}
8:{4 items
"name":"QORIG"
"label":"Origin"
"type":"Char"
"length":8
}
9:{4 items
"name":"QEVAL"
"label":"Evaluator"
"type":"Char"
"length":22
}
]
"records":{10 items
"STUDYID":1616 items
[0 - 100]
[100 - 200]
[200 - 300]
[300 - 400]
[400 - 500]
[500 - 600]
[600 - 700]
[700 - 800]
[800 - 900]
[900 - 1000]
[1000 - 1100]
[1100 - 1200]
[1200 - 1300]
[1300 - 1400]
[1400 - 1500]
[1500 - 1600]
[1600 - 1616]
"RDOMAIN":1616 items
[0 - 100]
[100 - 200]
[200 - 300]
[300 - 400]
[400 - 500]
[500 - 600]
[600 - 700]
[700 - 800]
[800 - 900]
[900 - 1000]
[1000 - 1100]
[1100 - 1200]
[1200 - 1300]
[1300 - 1400]
[1400 - 1500]
[1500 - 1600]
[1600 - 1616]
"USUBJID":1616 items
[0 - 100]
[100 - 200]
[200 - 300]
[300 - 400]
[400 - 500]
[500 - 600]
[600 - 700]
[700 - 800]
[800 - 900]
[900 - 1000]
[1000 - 1100]
[1100 - 1200]
[1200 - 1300]
[1300 - 1400]
[1400 - 1500]
[1500 - 1600]
[1600 - 1616]
"IDVAR":1616 items
[0 - 100]
[100 - 200]
[200 - 300]
[300 - 400]
[400 - 500]
[500 - 600]
[600 - 700]
[700 - 800]
[800 - 900]
[900 - 1000]
[1000 - 1100]
[1100 - 1200]
[1200 - 1300]
[1300 - 1400]
[1400 - 1500]
[1500 - 1600]
[1600 - 1616]
"IDVARVAL":1616 items
[0 - 100]
[100 - 200]
[200 - 300]
[300 - 400]
[400 - 500]
[500 - 600]
[600 - 700]
[700 - 800]
[800 - 900]
[900 - 1000]
[1000 - 1100]
[1100 - 1200]
[1200 - 1300]
[1300 - 1400]
[1400 - 1500]
[1500 - 1600]
[1600 - 1616]
"QNAM":1616 items
[0 - 100]
[100 - 200]
[200 - 300]
[300 - 400]
[400 - 500]
[500 - 600]
[600 - 700]
[700 - 800]
[800 - 900]
[900 - 1000]
[1000 - 1100]
[1100 - 1200]
[1200 - 1300]
[1300 - 1400]
[1400 - 1500]
[1500 - 1600]
[1600 - 1616]
"QLABEL":1616 items
[0 - 100]
[100 - 200]
[200 - 300]
[300 - 400]
[400 - 500]
[500 - 600]
[600 - 700]
[700 - 800]
[800 - 900]
[900 - 1000]
[1000 - 1100]
[1100 - 1200]
[1200 - 1300]
[1300 - 1400]
[1400 - 1500]
[1500 - 1600]
[1600 - 1616]
"QVAL":1616 items
[0 - 100]
[100 - 200]
[200 - 300]
[300 - 400]
[400 - 500]
[500 - 600]
[600 - 700]
[700 - 800]
[800 - 900]
[900 - 1000]
[1000 - 1100]
[1100 - 1200]
[1200 - 1300]
[1300 - 1400]
[1400 - 1500]
[1500 - 1600]
[1600 - 1616]
"QORIG":1616 items
[0 - 100]
[100 - 200]
[200 - 300]
[300 - 400]
[400 - 500]
[500 - 600]
[600 - 700]
[700 - 800]
[800 - 900]
[900 - 1000]
[1000 - 1100]
[1100 - 1200]
[1200 - 1300]
[1300 - 1400]
[1400 - 1500]
[1500 - 1600]
[1600 - 1616]
"QEVAL":1616 items
[0 - 100]
[100 - 200]
[200 - 300]
[300 - 400]
[400 - 500]
[500 - 600]
[600 - 700]
[700 - 800]
[800 - 900]
[900 - 1000]
[1000 - 1100]
[1100 - 1200]
[1200 - 1300]
[1300 - 1400]
[1400 - 1500]
[1500 - 1600]
[1600 - 1616]
}
}
2:{5 items
"filename":"vs.xpt"
"label":"Vital Signs"
"domain":"VS"
"variables":[20 items
0:{4 items
"name":"STUDYID"
"label":"Study Identifier"
"type":"Char"
"length":10
}
1:{4 items
"name":"DOMAIN"
"label":"Domain Abbreviation"
"type":"Char"
"length":2
}
2:{4 items
"name":"USUBJID"
"label":"Unique Subject Identifier"
"type":"Char"
"length":14
}
3:{4 items
"name":"VSSEQ"
"label":"Sequence Number"
"type":"Num"
"length":8
}
4:{4 items
"name":"VSSPID"
"label":"Sponsor-Defined Identifier"
"type":"Char"
"length":4
}
5:{4 items
"name":"VSTESTCD"
"label":"Vital Signs Test Short Name"
"type":"Char"
"length":6
}
6:{4 items
"name":"VSTEST"
"label":"Vital Signs Test Name"
"type":"Char"
"length":24
}
7:{4 items
"name":"VSCAT"
"label":"Category for Vital Signs"
"type":"Char"
"length":16
}
8:{4 items
"name":"VSORRES"
"label":"Result or Finding in Original Units"
"type":"Char"
"length":4
}
9:{4 items
"name":"VSORRESU"
"label":"Original Units"
"type":"Char"
"length":9
}
10:{4 items
"name":"VSSTRESC"
"label":"Character Result/Finding in Std Format"
"type":"Char"
"length":4
}
11:{4 items
"name":"VSSTRESN"
"label":"Numeric Result/Finding in Standard Units"
"type":"Num"
"length":8
}
12:{4 items
"name":"VSSTRESU"
"label":"Standard Units"
"type":"Char"
"length":9
}
13:{4 items
"name":"VSBLFL"
"label":"Baseline Flag"
"type":"Char"
"length":1
}
14:{4 items
"name":"EPOCH"
"label":"Epoch"
"type":"Char"
"length":9
}
15:{4 items
"name":"VISITNUM"
"label":"Visit Number"
"type":"Num"
"length":8
}
16:{4 items
"name":"VISIT"
"label":"Visit Name"
"type":"Char"
"length":18
}
17:{4 items
"name":"VISITDY"
"label":"Planned Study Day of Visit"
"type":"Num"
"length":8
}
18:{4 items
"name":"VSDTC"
"label":"Date/Time of Measurements"
"type":"Char"
"length":10
}
19:{4 items
"name":"VSDY"
"label":"Study Day of Vital Signs"
"type":"Num"
"length":8
}
]
"records":{20 items
"STUDYID":1776 items
[0 - 100]
[100 - 200]
[200 - 300]
[300 - 400]
[400 - 500]
[500 - 600]
[600 - 700]
[700 - 800]
[800 - 900]
[900 - 1000]
[1000 - 1100]
[1100 - 1200]
[1200 - 1300]
[1300 - 1400]
[1400 - 1500]
[1500 - 1600]
[1600 - 1700]
[1700 - 1776]
"DOMAIN":1776 items
[0 - 100]
[100 - 200]
[200 - 300]
[300 - 400]
[400 - 500]
[500 - 600]
[600 - 700]
[700 - 800]
[800 - 900]
[900 - 1000]
[1000 - 1100]
[1100 - 1200]
[1200 - 1300]
[1300 - 1400]
[1400 - 1500]
[1500 - 1600]
[1600 - 1700]
[1700 - 1776]
"USUBJID":1776 items
[0 - 100]
[100 - 200]
[200 - 300]
[300 - 400]
[400 - 500]
[500 - 600]
[600 - 700]
[700 - 800]
[800 - 900]
[900 - 1000]
[1000 - 1100]
[1100 - 1200]
[1200 - 1300]
[1300 - 1400]
[1400 - 1500]
[1500 - 1600]
[1600 - 1700]
[1700 - 1776]
"VSSEQ":1776 items
[0 - 100]
[100 - 200]
[200 - 300]
[300 - 400]
[400 - 500]
[500 - 600]
[600 - 700]
[700 - 800]
[800 - 900]
[900 - 1000]
[1000 - 1100]
[1100 - 1200]
[1200 - 1300]
[1300 - 1400]
[1400 - 1500]
[1500 - 1600]
[1600 - 1700]
[1700 - 1776]
"VSSPID":1776 items
[0 - 100]
[100 - 200]
[200 - 300]
[300 - 400]
[400 - 500]
[500 - 600]
[600 - 700]
[700 - 800]
[800 - 900]
[900 - 1000]
[1000 - 1100]
[1100 - 1200]
[1200 - 1300]
[1300 - 1400]
[1400 - 1500]
[1500 - 1600]
[1600 - 1700]
[1700 - 1776]
"VSTESTCD":1776 items
[0 - 100]
[100 - 200]
[200 - 300]
[300 - 400]
[400 - 500]
[500 - 600]
[600 - 700]
[700 - 800]
[800 - 900]
[900 - 1000]
[1000 - 1100]
[1100 - 1200]
[1200 - 1300]
[1300 - 1400]
[1400 - 1500]
[1500 - 1600]
[1600 - 1700]
[1700 - 1776]
"VSTEST":1776 items
[0 - 100]
[100 - 200]
[200 - 300]
[300 - 400]
[400 - 500]
[500 - 600]
[600 - 700]
[700 - 800]
[800 - 900]
[900 - 1000]
[1000 - 1100]
[1100 - 1200]
[1200 - 1300]
[1300 - 1400]
[1400 - 1500]
[1500 - 1600]
[1600 - 1700]
[1700 - 1776]
"VSCAT":1776 items
[0 - 100]
[100 - 200]
[200 - 300]
[300 - 400]
[400 - 500]
[500 - 600]
[600 - 700]
[700 - 800]
[800 - 900]
[900 - 1000]
[1000 - 1100]
[1100 - 1200]
[1200 - 1300]
[1300 - 1400]
[1400 - 1500]
[1500 - 1600]
[1600 - 1700]
[1700 - 1776]
"VSORRES":1776 items
[0 - 100]
[100 - 200]
[200 - 300]
[300 - 400]
[400 - 500]
[500 - 600]
[600 - 700]
[700 - 800]
[800 - 900]
[900 - 1000]
[1000 - 1100]
[1100 - 1200]
[1200 - 1300]
[1300 - 1400]
[1400 - 1500]
[1500 - 1600]
[1600 - 1700]
[1700 - 1776]
"VSORRESU":1776 items
[0 - 100]
[100 - 200]
[200 - 300]
[300 - 400]
[400 - 500]
[500 - 600]
[600 - 700]
[700 - 800]
[800 - 900]
[900 - 1000]
[1000 - 1100]
[1100 - 1200]
[1200 - 1300]
[1300 - 1400]
[1400 - 1500]
[1500 - 1600]
[1600 - 1700]
[1700 - 1776]
"VSSTRESC":1776 items
[0 - 100]
[100 - 200]
[200 - 300]
[300 - 400]
[400 - 500]
[500 - 600]
[600 - 700]
[700 - 800]
[800 - 900]
[900 - 1000]
[1000 - 1100]
[1100 - 1200]
[1200 - 1300]
[1300 - 1400]
[1400 - 1500]
[1500 - 1600]
[1600 - 1700]
[1700 - 1776]
"VSSTRESN":1776 items
[0 - 100]
[100 - 200]
[200 - 300]
[300 - 400]
[400 - 500]
[500 - 600]
[600 - 700]
[700 - 800]
[800 - 900]
[900 - 1000]
[1000 - 1100]
[1100 - 1200]
[1200 - 1300]
[1300 - 1400]
[1400 - 1500]
[1500 - 1600]
[1600 - 1700]
[1700 - 1776]
"VSSTRESU":1776 items
[0 - 100]
[100 - 200]
[200 - 300]
[300 - 400]
[400 - 500]
[500 - 600]
[600 - 700]
[700 - 800]
[800 - 900]
[900 - 1000]
[1000 - 1100]
[1100 - 1200]
[1200 - 1300]
[1300 - 1400]
[1400 - 1500]
[1500 - 1600]
[1600 - 1700]
[1700 - 1776]
"VSBLFL":1776 items
[0 - 100]
[100 - 200]
[200 - 300]
[300 - 400]
[400 - 500]
[500 - 600]
[600 - 700]
[700 - 800]
[800 - 900]
[900 - 1000]
[1000 - 1100]
[1100 - 1200]
[1200 - 1300]
[1300 - 1400]
[1400 - 1500]
[1500 - 1600]
[1600 - 1700]
[1700 - 1776]
"EPOCH":1776 items
[0 - 100]
[100 - 200]
[200 - 300]
[300 - 400]
[400 - 500]
[500 - 600]
[600 - 700]
[700 - 800]
[800 - 900]
[900 - 1000]
[1000 - 1100]
[1100 - 1200]
[1200 - 1300]
[1300 - 1400]
[1400 - 1500]
[1500 - 1600]
[1600 - 1700]
[1700 - 1776]
"VISITNUM":1776 items
[0 - 100]
[100 - 200]
[200 - 300]
[300 - 400]
[400 - 500]
[500 - 600]
[600 - 700]
[700 - 800]
[800 - 900]
[900 - 1000]
[1000 - 1100]
[1100 - 1200]
[1200 - 1300]
[1300 - 1400]
[1400 - 1500]
[1500 - 1600]
[1600 - 1700]
[1700 - 1776]
"VISIT":1776 items
[0 - 100]
[100 - 200]
[200 - 300]
[300 - 400]
[400 - 500]
[500 - 600]
[600 - 700]
[700 - 800]
[800 - 900]
[900 - 1000]
[1000 - 1100]
[1100 - 1200]
[1200 - 1300]
[1300 - 1400]
[1400 - 1500]
[1500 - 1600]
[1600 - 1700]
[1700 - 1776]
"VISITDY":1776 items
[0 - 100]
[100 - 200]
[200 - 300]
[300 - 400]
[400 - 500]
[500 - 600]
[600 - 700]
[700 - 800]
[800 - 900]
[900 - 1000]
[1000 - 1100]
[1100 - 1200]
[1200 - 1300]
[1300 - 1400]
[1400 - 1500]
[1500 - 1600]
[1600 - 1700]
[1700 - 1776]
"VSDTC":1776 items
[0 - 100]
[100 - 200]
[200 - 300]
[300 - 400]
[400 - 500]
[500 - 600]
[600 - 700]
[700 - 800]
[800 - 900]
[900 - 1000]
[1000 - 1100]
[1100 - 1200]
[1200 - 1300]
[1300 - 1400]
[1400 - 1500]
[1500 - 1600]
[1600 - 1700]
[1700 - 1776]
"VSDY":1776 items
[0 - 100]
[100 - 200]
[200 - 300]
[300 - 400]
[400 - 500]
[500 - 600]
[600 - 700]
[700 - 800]
[800 - 900]
[900 - 1000]
[1000 - 1100]
[1100 - 1200]
[1200 - 1300]
[1300 - 1400]
[1400 - 1500]
[1500 - 1600]
[1600 - 1700]
[1700 - 1776]
}
}
3:{5 items
"filename":"ae.xpt"
"label":"Adverse Events"
"domain":"AE"
"variables":[27 items
0:{4 items
"name":"STUDYID"
"label":"Study Identifier"
"type":"Char"
"length":10
}
1:{4 items
"name":"DOMAIN"
"label":"Domain Abbreviation"
"type":"Char"
"length":2
}
2:{4 items
"name":"USUBJID"
"label":"Unique Subject Identifier"
"type":"Char"
"length":14
}
3:{4 items
"name":"AESEQ"
"label":"Sequence Number"
"type":"Num"
"length":8
}
4:{4 items
"name":"AESPID"
"label":"Sponsor-Defined Identifier"
"type":"Char"
"length":4
}
5:{4 items
"name":"AETERM"
"label":"Reported Term for the Adverse Event"
"type":"Char"
"length":38
}
6:{4 items
"name":"AELLT"
"label":"Lowest Level Term"
"type":"Char"
"length":38
}
7:{4 items
"name":"AELLTCD"
"label":"Lowest Level Term Code"
"type":"Num"
"length":8
}
8:{4 items
"name":"AEDECOD"
"label":"Dictionary-Derived Term"
"type":"Char"
"length":38
}
9:{4 items
"name":"AEPTCD"
"label":"Preferred Term Code"
"type":"Num"
"length":8
}
10:{4 items
"name":"AEHLT"
"label":"High Level Term"
"type":"Char"
"length":65
}
11:{4 items
"name":"AEHLTCD"
"label":"High Level Term Code"
"type":"Num"
"length":8
}
12:{4 items
"name":"AEHLGT"
"label":"High Level Group Term"
"type":"Char"
"length":55
}
13:{4 items
"name":"AEHLGTCD"
"label":"High Level Group Term Code"
"type":"Num"
"length":8
}
14:{4 items
"name":"AEBODSYS"
"label":"Body System or Organ Class"
"type":"Char"
"length":52
}
15:{4 items
"name":"AEBDSYCD"
"label":"Body System or Organ Class Code"
"type":"Num"
"length":8
}
16:{4 items
"name":"AESOC"
"label":"Primary System Organ Class"
"type":"Char"
"length":52
}
17:{4 items
"name":"AESOCCD"
"label":"Primary System Organ Class Code"
"type":"Num"
"length":8
}
18:{4 items
"name":"AESEV"
"label":"Severity/Intensity"
"type":"Char"
"length":8
}
19:{4 items
"name":"AESER"
"label":"Serious Event"
"type":"Char"
"length":1
}
20:{4 items
"name":"AEACN"
"label":"Action Taken with Study Treatment"
"type":"Char"
"length":1
}
21:{4 items
"name":"AEREL"
"label":"Causality"
"type":"Char"
"length":1
}
22:{4 items
"name":"AEOUT"
"label":"Outcome of Adverse Event"
"type":"Char"
"length":26
}
23:{4 items
"name":"AESHOSP"
"label":"Requires or Prolongs Hospitalization"
"type":"Char"
"length":1
}
24:{4 items
"name":"AESTDTC"
"label":"Start Date/Time of Adverse Event"
"type":"Char"
"length":10
}
25:{4 items
"name":"AEENDTC"
"label":"End Date/Time of Adverse Event"
"type":"Char"
"length":1
}
26:{4 items
"name":"AESTDY"
"label":"Study Day of Start of Adverse Event"
"type":"Num"
"length":8
}
]
"records":{27 items
"STUDYID":1616 items
[0 - 100]
[100 - 200]
[200 - 300]
[300 - 400]
[400 - 500]
[500 - 600]
[600 - 700]
[700 - 800]
[800 - 900]
[900 - 1000]
[1000 - 1100]
[1100 - 1200]
[1200 - 1300]
[1300 - 1400]
[1400 - 1500]
[1500 - 1600]
[1600 - 1616]
"DOMAIN":1616 items
[0 - 100]
[100 - 200]
[200 - 300]
[300 - 400]
[400 - 500]
[500 - 600]
[600 - 700]
[700 - 800]
[800 - 900]
[900 - 1000]
[1000 - 1100]
[1100 - 1200]
[1200 - 1300]
[1300 - 1400]
[1400 - 1500]
[1500 - 1600]
[1600 - 1616]
"USUBJID":1616 items
[0 - 100]
[100 - 200]
[200 - 300]
[300 - 400]
[400 - 500]
[500 - 600]
[600 - 700]
[700 - 800]
[800 - 900]
[900 - 1000]
[1000 - 1100]
[1100 - 1200]
[1200 - 1300]
[1300 - 1400]
[1400 - 1500]
[1500 - 1600]
[1600 - 1616]
"AESEQ":1616 items
[0 - 100]
[100 - 200]
[200 - 300]
[300 - 400]
[400 - 500]
[500 - 600]
[600 - 700]
[700 - 800]
[800 - 900]
[900 - 1000]
[1000 - 1100]
[1100 - 1200]
[1200 - 1300]
[1300 - 1400]
[1400 - 1500]
[1500 - 1600]
[1600 - 1616]
"AESPID":1616 items
[0 - 100]
[100 - 200]
[200 - 300]
[300 - 400]
[400 - 500]
[500 - 600]
[600 - 700]
[700 - 800]
[800 - 900]
[900 - 1000]
[1000 - 1100]
[1100 - 1200]
[1200 - 1300]
[1300 - 1400]
[1400 - 1500]
[1500 - 1600]
[1600 - 1616]
"AETERM":1616 items
[0 - 100]
[100 - 200]
[200 - 300]
[300 - 400]
[400 - 500]
[500 - 600]
[600 - 700]
[700 - 800]
[800 - 900]
[900 - 1000]
[1000 - 1100]
[1100 - 1200]
[1200 - 1300]
[1300 - 1400]
[1400 - 1500]
[1500 - 1600]
[1600 - 1616]
"AELLT":1616 items
[0 - 100]
[100 - 200]
[200 - 300]
[300 - 400]
[400 - 500]
[500 - 600]
[600 - 700]
[700 - 800]
[800 - 900]
[900 - 1000]
[1000 - 1100]
[1100 - 1200]
[1200 - 1300]
[1300 - 1400]
[1400 - 1500]
[1500 - 1600]
[1600 - 1616]
"AELLTCD":1616 items
[0 - 100]
[100 - 200]
[200 - 300]
[300 - 400]
[400 - 500]
[500 - 600]
[600 - 700]
[700 - 800]
[800 - 900]
[900 - 1000]
[1000 - 1100]
[1100 - 1200]
[1200 - 1300]
[1300 - 1400]
[1400 - 1500]
[1500 - 1600]
[1600 - 1616]
"AEDECOD":1616 items
[0 - 100]
[100 - 200]
[200 - 300]
[300 - 400]
[400 - 500]
[500 - 600]
[600 - 700]
[700 - 800]
[800 - 900]
[900 - 1000]
[1000 - 1100]
[1100 - 1200]
[1200 - 1300]
[1300 - 1400]
[1400 - 1500]
[1500 - 1600]
[1600 - 1616]
"AEPTCD":1616 items
[0 - 100]
[100 - 200]
[200 - 300]
[300 - 400]
[400 - 500]
[500 - 600]
[600 - 700]
[700 - 800]
[800 - 900]
[900 - 1000]
[1000 - 1100]
[1100 - 1200]
[1200 - 1300]
[1300 - 1400]
[1400 - 1500]
[1500 - 1600]
[1600 - 1616]
"AEHLT":1616 items
[0 - 100]
[100 - 200]
[200 - 300]
[300 - 400]
[400 - 500]
[500 - 600]
[600 - 700]
[700 - 800]
[800 - 900]
[900 - 1000]
[1000 - 1100]
[1100 - 1200]
[1200 - 1300]
[1300 - 1400]
[1400 - 1500]
[1500 - 1600]
[1600 - 1616]
"AEHLTCD":1616 items
[0 - 100]
[100 - 200]
[200 - 300]
[300 - 400]
[400 - 500]
[500 - 600]
[600 - 700]
[700 - 800]
[800 - 900]
[900 - 1000]
[1000 - 1100]
[1100 - 1200]
[1200 - 1300]
[1300 - 1400]
[1400 - 1500]
[1500 - 1600]
[1600 - 1616]
"AEHLGT":1616 items
[0 - 100]
[100 - 200]
[200 - 300]
[300 - 400]
[400 - 500]
[500 - 600]
[600 - 700]
[700 - 800]
[800 - 900]
[900 - 1000]
[1000 - 1100]
[1100 - 1200]
[1200 - 1300]
[1300 - 1400]
[1400 - 1500]
[1500 - 1600]
[1600 - 1616]
"AEHLGTCD":1616 items
[0 - 100]
[100 - 200]
[200 - 300]
[300 - 400]
[400 - 500]
[500 - 600]
[600 - 700]
[700 - 800]
[800 - 900]
[900 - 1000]
[1000 - 1100]
[1100 - 1200]
[1200 - 1300]
[1300 - 1400]
[1400 - 1500]
[1500 - 1600]
[1600 - 1616]
"AEBODSYS":1616 items
[0 - 100]
[100 - 200]
[200 - 300]
[300 - 400]
[400 - 500]
[500 - 600]
[600 - 700]
[700 - 800]
[800 - 900]
[900 - 1000]
[1000 - 1100]
[1100 - 1200]
[1200 - 1300]
[1300 - 1400]
[1400 - 1500]
[1500 - 1600]
[1600 - 1616]
"AEBDSYCD":1616 items
[0 - 100]
[100 - 200]
[200 - 300]
[300 - 400]
[400 - 500]
[500 - 600]
[600 - 700]
[700 - 800]
[800 - 900]
[900 - 1000]
[1000 - 1100]
[1100 - 1200]
[1200 - 1300]
[1300 - 1400]
[1400 - 1500]
[1500 - 1600]
[1600 - 1616]
"AESOC":1616 items
[0 - 100]
[100 - 200]
[200 - 300]
[300 - 400]
[400 - 500]
[500 - 600]
[600 - 700]
[700 - 800]
[800 - 900]
[900 - 1000]
[1000 - 1100]
[1100 - 1200]
[1200 - 1300]
[1300 - 1400]
[1400 - 1500]
[1500 - 1600]
[1600 - 1616]
"AESOCCD":1616 items
[0 - 100]
[100 - 200]
[200 - 300]
[300 - 400]
[400 - 500]
[500 - 600]
[600 - 700]
[700 - 800]
[800 - 900]
[900 - 1000]
[1000 - 1100]
[1100 - 1200]
[1200 - 1300]
[1300 - 1400]
[1400 - 1500]
[1500 - 1600]
[1600 - 1616]
"AESEV":1616 items
[0 - 100]
[100 - 200]
[200 - 300]
[300 - 400]
[400 - 500]
[500 - 600]
[600 - 700]
[700 - 800]
[800 - 900]
[900 - 1000]
[1000 - 1100]
[1100 - 1200]
[1200 - 1300]
[1300 - 1400]
[1400 - 1500]
[1500 - 1600]
[1600 - 1616]
"AESER":1616 items
[0 - 100]
[100 - 200]
[200 - 300]
[300 - 400]
[400 - 500]
[500 - 600]
[600 - 700]
[700 - 800]
[800 - 900]
[900 - 1000]
[1000 - 1100]
[1100 - 1200]
[1200 - 1300]
[1300 - 1400]
[1400 - 1500]
[1500 - 1600]
[1600 - 1616]
"AEACN":1616 items
[0 - 100]
[100 - 200]
[200 - 300]
[300 - 400]
[400 - 500]
[500 - 600]
[600 - 700]
[700 - 800]
[800 - 900]
[900 - 1000]
[1000 - 1100]
[1100 - 1200]
[1200 - 1300]
[1300 - 1400]
[1400 - 1500]
[1500 - 1600]
[1600 - 1616]
"AEREL":1616 items
[0 - 100]
[100 - 200]
[200 - 300]
[300 - 400]
[400 - 500]
[500 - 600]
[600 - 700]
[700 - 800]
[800 - 900]
[900 - 1000]
[1000 - 1100]
[1100 - 1200]
[1200 - 1300]
[1300 - 1400]
[1400 - 1500]
[1500 - 1600]
[1600 - 1616]
"AEOUT":1616 items
[0 - 100]
[100 - 200]
[200 - 300]
[300 - 400]
[400 - 500]
[500 - 600]
[600 - 700]
[700 - 800]
[800 - 900]
[900 - 1000]
[1000 - 1100]
[1100 - 1200]
[1200 - 1300]
[1300 - 1400]
[1400 - 1500]
[1500 - 1600]
[1600 - 1616]
"AESHOSP":1616 items
[0 - 100]
[100 - 200]
[200 - 300]
[300 - 400]
[400 - 500]
[500 - 600]
[600 - 700]
[700 - 800]
[800 - 900]
[900 - 1000]
[1000 - 1100]
[1100 - 1200]
[1200 - 1300]
[1300 - 1400]
[1400 - 1500]
[1500 - 1600]
[1600 - 1616]
"AESTDTC":1616 items
[0 - 100]
[100 - 200]
[200 - 300]
[300 - 400]
[400 - 500]
[500 - 600]
[600 - 700]
[700 - 800]
[800 - 900]
[900 - 1000]
[1000 - 1100]
[1100 - 1200]
[1200 - 1300]
[1300 - 1400]
[1400 - 1500]
[1500 - 1600]
[1600 - 1616]
"AEENDTC":1616 items
[0 - 100]
[100 - 200]
[200 - 300]
[300 - 400]
[400 - 500]
[500 - 600]
[600 - 700]
[700 - 800]
[800 - 900]
[900 - 1000]
[1000 - 1100]
[1100 - 1200]
[1200 - 1300]
[1300 - 1400]
[1400 - 1500]
[1500 - 1600]
[1600 - 1616]
"AESTDY":1616 items
[0 - 100]
[100 - 200]
[200 - 300]
[300 - 400]
[400 - 500]
[500 - 600]
[600 - 700]
[700 - 800]
[800 - 900]
[900 - 1000]
[1000 - 1100]
[1100 - 1200]
[1200 - 1300]
[1300 - 1400]
[1400 - 1500]
[1500 - 1600]
[1600 - 1616]
}
}
4:{5 items
"filename":"sj.xpt"
"label":"Subject Repro Stages"
"domain":"SJ"
"variables":[10 items
0:{4 items
"name":"STUDYID"
"label":"Study Identifier"
"type":"Char"
"length":50
}
1:{4 items
"name":"DOMAIN"
"label":"Domain Abbreviation"
"type":"Char"
"length":50
}
2:{4 items
"name":"USUBJID"
"label":"Unique Subject Identifier"
"type":"Char"
"length":50
}
3:{4 items
"name":"SJSEQ"
"label":"Sequence Number"
"type":"Num"
"length":8
}
4:{4 items
"name":"RSTGCD"
"label":"Repro Stage Code"
"type":"Char"
"length":50
}
5:{4 items
"name":"RSTAGE"
"label":"Description of Repro Stage"
"type":"Char"
"length":50
}
6:{4 items
"name":"SJSTDTC"
"label":"Start Date/Time of Repro Stage"
"type":"Char"
"length":50
}
7:{4 items
"name":"SJENDTC"
"label":"End Date/Time of Repro Stage"
"type":"Char"
"length":50
}
8:{4 items
"name":"RPHASE"
"label":"Repro Phase"
"type":"Char"
"length":50
}
9:{4 items
"name":"SJUPDES"
"label":"Description of Unplanned Repro Stage"
"type":"Char"
"length":50
}
]
"records":{10 items
"STUDYID":[2 items
0:"CDISC-TEST"
1:"CDISC-TEST"
]
"DOMAIN":[2 items
0:"SJ"
1:"SJ"
]
"USUBJID":[2 items
0:"CDISC-TEST-001"
1:"CDISC-TEST-001"
]
"SJSEQ":[2 items
0:1
1:2
]
"RSTGCD":[2 items
0:"GEST"
1:"GESTTK"
]
"RSTAGE":[2 items
0:"Gestation28D"
1:"Gestation16D"
]
"SJSTDTC":[2 items
0:"2007-03-01"
1:"2007-03-01"
]
"SJENDTC":[2 items
0:"2007-03-29T07:44"
1:"2007-03-17T08:35"
]
"RPHASE":[2 items
0:"GESTATION"
1:"GESTATION"
]
"SJUPDES":[2 items
0:""
1:""
]
}
}
]
"standard":{2 items
"product":"sdtmig"
"version":"3-4"
}
"codelists":[]0 items
}