STUDYID,DOMAIN,USUBJID,SUBJID,RFSTDTC,RFENDTC,RFXSTDTC,RFXENDTC,RFICDTC,RFPENDTC,DTHDTC,DTHFL,SITEID,BRTHDTC,AGE,AGEU,SEX,RACE,ETHNIC,ARMCD,ARM,ACTARMCD,ACTARM,ARMNRS,ACTARMUD,COUNTRY
CDISCPILOT01,DM,CDISC001,1115,2018-05-17T09:35,2018-08-03,2018-05-17T09:35,2018-08-03,2018-04-26,2018-08-22,2018-08-22,Y,701,1947-07-24 00:00:00,70,YEARS,M,WHITE,NOT HISPANIC OR LATINO,A,Drug A,A,Drug A,,,AUS
CDISCPILOT01,DM,CDISC002,1211,2018-05-24T12:00,2018-11-06,2018-05-24T12:00,2018-11-06,2018-05-07,2019-02-04,2019-02-04,Y,701,1905-05-08 00:00:00,78,YEARS,M,WHITE,NOT HISPANIC OR LATINO,P,Placebo,P,Placebo,,,AUS
CDISCPILOT01,DM,CDISC003,1302,2006-01-16,2006-03-19,2006-01-16,2006-03-19,2006-01-02,2006-06-20,2006-06-20,Y,701,1944-06-16 00:00:00,74,YEARS,M,WHITE,NOT HISPANIC OR LATINO,B,Drug B,B,Drug B,,,CZE
CDISCPILOT01,DM,CDISC004,1402,2018-07-16T09:15,2018-11-06T14:00,2018-07-16T09:15,2018-11-06T14:00,2018-06-27,2018-12-11,,,701,1905-04-16 00:00:00,68,YEARS,F,WHITE,HISPANIC OR LATINO,B,Drug B,B,Drug B,,,CAN
CDISCPILOT01,DM,CDISC005,1505,2018-07-17T09:15,2018-11-07T14:00,2018-07-17T09:15,2018-11-07T14:00,2018-06-28,2018-12-12,2018-12-12,Y,701,1905-05-08 00:00:00,78,YEARS,F,WHITE,HISPANIC OR LATINO,A,Drug A,A,Drug A,,,USA
