{3 items
"datasets":[2 items
0:{5 items
"filename":"lb.xpt"
"label":"Laboratory Test Results"
"domain":"LB"
"variables":[20 items
0:{4 items
"name":"STUDYID"
"label":"Study Identifier"
"type":"Char"
"length":12
}
1:{4 items
"name":"DOMAIN"
"label":"Domain Abbreviation"
"type":"Char"
"length":2
}
2:{4 items
"name":"USUBJID"
"label":"Unique Subject Identifier"
"type":"Char"
"length":8
}
3:{4 items
"name":"LBSEQ"
"label":"Sequence Number"
"type":"Num"
"length":8
}
4:{4 items
"name":"LBTESTCD"
"label":"Lab Test or Examination Short Name"
"type":"Char"
"length":7
}
5:{4 items
"name":"LBTEST"
"label":"Lab Test or Examination Name"
"type":"Char"
"length":39
}
6:{4 items
"name":"LBCAT"
"label":"Category for Lab Test"
"type":"Char"
"length":10
}
7:{4 items
"name":"LBSCAT"
"label":"Subcategory for Lab Test"
"type":"Char"
"length":39
}
8:{4 items
"name":"LBORRES"
"label":"Result or Finding in Original Units"
"type":"Char"
"length":6
}
9:{4 items
"name":"LBORRESU"
"label":"Original Units"
"type":"Char"
"length":7
}
10:{4 items
"name":"LBSPEC"
"label":"Specimen Type"
"type":"Char"
"length":8
}
11:{4 items
"name":"LBMETHOD"
"label":"Method of Test or Examination"
"type":"Char"
"length":200
}
12:{4 items
"name":"LBLOBXFL"
"label":"Last Observation Before Exposure Flag"
"type":"Char"
"length":1
}
13:{4 items
"name":"LBSTAT"
"label":"Completion Status"
"type":"Char"
"length":8
}
14:{4 items
"name":"LBREASND"
"label":"Reason not Performed"
"type":"Char"
"length":50
}
15:{4 items
"name":"VISITNUM"
"label":"Visit Number"
"type":"Num"
"length":8
}
16:{4 items
"name":"VISIT"
"label":"Visit Name"
"type":"Char"
"length":200
}
17:{4 items
"name":"EPOCH"
"label":"Epoch"
"type":"Char"
"length":9
}
18:{4 items
"name":"LBDTC"
"label":"Date/Time of Specimen Collection"
"type":"Char"
"length":19
}
19:{4 items
"name":"LBPDUR"
"label":"Planned Duration"
"type":"Char"
"length":9
}
]
"records":{20 items
"STUDYID":[12 items
0:"CDISCPILOT01"
1:"CDISCPILOT01"
2:"CDISCPILOT01"
3:"CDISCPILOT01"
4:"CDISCPILOT01"
5:"CDISCPILOT01"
6:"CDISCPILOT01"
7:"CDISCPILOT01"
8:"CDISCPILOT01"
9:"CDISCPILOT01"
10:"CDISCPILOT01"
11:"CDISCPILOT01"
]
"DOMAIN":[12 items
0:"LB"
1:"LB"
2:"LB"
3:"LB"
4:"LB"
5:"LB"
6:"LB"
7:"LB"
8:"LB"
9:"LB"
10:"LB"
11:"LB"
]
"USUBJID":[12 items
0:"CDISC001"
1:"CDISC001"
2:"CDISC001"
3:"CDISC001"
4:"CDISC001"
5:"CDISC001"
6:"CDISC001"
7:"CDISC001"
8:"CDISC001"
9:"CDISC001"
10:"CDISC001"
11:"CDISC002"
]
"LBSEQ":[12 items
0:1
1:5
2:38
3:42
4:73
5:77
6:103
7:118
8:122
9:148
10:152
11:1
]
"LBTESTCD":[12 items
0:"ALB"
1:"BASO"
2:"ALB"
3:"BASO"
4:"ALB"
5:"BASO"
6:"ALB"
7:"ALB"
8:"BASO"
9:"ALB"
10:"BASO"
11:"ALB"
]
"LBTEST":[12 items
0:"Albumin"
1:"Basophils"
2:"Albumin"
3:"Basophils"
4:"Albumin"
5:"Basophils"
6:"Albumin"
7:"Albumin"
8:"Basophils"
9:"Albumin"
10:"Basophils"
11:"Albumin"
]
"LBCAT":[12 items
0:"CHEMISTRY"
1:"HEMATOLOGY"
2:"CHEMISTRY"
3:"HEMATOLOGY"
4:"CHEMISTRY"
5:"HEMATOLOGY"
6:"CHEMISTRY"
7:"CHEMISTRY"
8:"HEMATOLOGY"
9:"CHEMISTRY"
10:"HEMATOLOGY"
11:"CHEMISTRY"
]
"LBSCAT":[12 items
0:"ALBCAT1"
1:""
2:"ALBCAT2"
3:""
4:"ALBCAT1"
5:""
6:"ALBCAT2"
7:"ALBCAT1"
8:""
9:"ALBCAT2"
10:""
11:"ALBCAT1"
]
"LBORRES":[12 items
0:"3.9"
1:""
2:"3.6"
3:""
4:""
5:"0.05"
6:""
7:"3.7"
8:""
9:"3.9"
10:"0.04"
11:""
]
"LBORRESU":[12 items
0:"g/dL"
1:""
2:"g/dL"
3:"10^9/L"
4:"g/dL"
5:"10^9/L"
6:"g/dL"
7:"g/dL"
8:"10^9/L"
9:"g/dL"
10:"10^9/L"
11:"g/dL"
]
"LBSPEC":[12 items
0:"SERUM"
1:""
2:"SERUM"
3:""
4:"SERUM"
5:""
6:"SERUM"
7:"SERUM"
8:""
9:"SERUM"
10:""
11:"SERUM"
]
"LBMETHOD":[12 items
0:"METHOD-A"
1:"BASOMETHOD"
2:""
3:"BASOMETHOD"
4:"METHOD-B"
5:"BASOMETHOD"
6:""
7:"METHOD-A"
8:"BASOMETHOD"
9:""
10:"BASOMETHOD"
11:"METHOD-B"
]
"LBLOBXFL":[12 items
0:"Y"
1:"Y"
2:""
3:""
4:""
5:""
6:""
7:""
8:""
9:""
10:""
11:"Y"
]
"LBSTAT":[12 items
0:"NOT DONE"
1:"NOT DONE"
2:"NOT DONE"
3:"NOT DONE"
4:"NOT DONE"
5:"NOT DONE"
6:"NOT DONE"
7:""
8:"NOT DONE"
9:"NOT DONE"
10:""
11:"NOT DONE"
]
"LBREASND":[12 items
0:"LB REASON1"
1:""
2:"NO REASON"
3:"BECAUSE WE CAN"
4:"FORGOT"
5:""
6:""
7:""
8:""
9:""
10:""
11:"LB REASON2"
]
"VISITNUM":[12 items
0:1
1:1
2:4
3:4
4:5
5:5
6:5.01
7:7
8:7
9:8
10:8
11:1
]
"VISIT":[12 items
0:"SCREENING 1"
1:"SCREENING 1"
2:"WEEK 2"
3:"WEEK 2"
4:"WEEK 4"
5:"WEEK 4"
6:"WEEK 4: UNSCHEDULED 01"
7:"WEEK 6"
8:"WEEK 6"
9:"WEEK 8"
10:"WEEK 8"
11:"SCREENING 1"
]
"EPOCH":[12 items
0:"SCREENING"
1:"SCREENING"
2:"TREATMENT"
3:"TREATMENT"
4:"TREATMENT"
5:"TREATMENT"
6:"TREATMENT"
7:"TREATMENT"
8:"TREATMENT"
9:"TREATMENT"
10:"TREATMENT"
11:"SCREENING"
]
"LBDTC":[12 items
0:"2012-11-23T11:20"
1:"2012-11-23T11:20"
2:"2012-12-13T14:05"
3:"2012-12-13T14:05"
4:"2012-12-26T08:44"
5:"2012-12-26T08:44"
6:"2012-12-28T09:27"
7:"2013-01-10T15:20"
8:"2013-01-10T15:20"
9:"2013-01-23T12:13"
10:"2013-01-23T12:13"
11:"2012-10-30T14:26"
]
"LBPDUR":[12 items
0:"PT1H"
1:"PT3H"
2:"PT5H"
3:"PT1H"
4:"PT3H"
5:"PT5H"
6:"PT1H"
7:"PT3H"
8:"PT5H"
9:"PT1H"
10:"PT3H"
11:"PT5H"
]
}
}
1:{5 items
"filename":"ae.xpt"
"label":"Adverse Events"
"domain":"AE"
"variables":[15 items
0:{4 items
"name":"STUDYID"
"label":"Study Identifier"
"type":"Char"
"length":12
}
1:{4 items
"name":"DOMAIN"
"label":"Domain Abbreviation"
"type":"Char"
"length":2
}
2:{4 items
"name":"USUBJID"
"label":"Unique Subject Identifier"
"type":"Char"
"length":8
}
3:{4 items
"name":"AESEQ"
"label":"Sequence Number"
"type":"Num"
"length":8
}
4:{4 items
"name":"AELNKID"
"label":"Link ID"
"type":"Char"
"length":50
}
5:{4 items
"name":"AETERM"
"label":"Reported Term for the Adverse Event"
"type":"Char"
"length":200
}
6:{4 items
"name":"AESEV"
"label":"Severity/Intensity"
"type":"Char"
"length":8
}
7:{4 items
"name":"AESER"
"label":"Serious Event"
"type":"Char"
"length":1
}
8:{4 items
"name":"EPOCH"
"label":"Epoch"
"type":"Char"
"length":9
}
9:{4 items
"name":"AESTDTC"
"label":"Start Date/Time of Adverse Event"
"type":"Char"
"length":10
}
10:{4 items
"name":"AEENDTC"
"label":"End Date/Time of Adverse Event"
"type":"Char"
"length":10
}
11:{4 items
"name":"AESTDY"
"label":"Study Day of Start of Adverse Event"
"type":"Num"
"length":8
}
12:{4 items
"name":"AEENDY"
"label":"Study Day of End of Adverse Event"
"type":"Num"
"length":8
}
13:{4 items
"name":"AEENRTPT"
"label":"End Relative to Reference Time Point"
"type":"Char"
"length":7
}
14:{4 items
"name":"AEENTPT"
"label":"End Reference Time Point"
"type":"Char"
"length":10
}
]
"records":{15 items
"STUDYID":[6 items
0:"CDISCPILOT01"
1:"CDISCPILOT01"
2:"CDISCPILOT01"
3:"CDISCPILOT01"
4:"CDISCPILOT01"
5:"CDISCPILOT01"
]
"DOMAIN":[6 items
0:"AE"
1:"AE"
2:"AE"
3:"AE"
4:"AE"
5:"AE"
]
"USUBJID":[6 items
0:"CDISC001"
1:"CDISC001"
2:"CDISC002"
3:"CDISC002"
4:"CDISC002"
5:"CDISC002"
]
"AESEQ":[6 items
0:1
1:2
2:1
3:2
4:3
5:4
]
"AELNKID":[6 items
0:"1"
1:"2"
2:"1"
3:"2"
4:"3"
5:"4"
]
"AETERM":[6 items
0:"INJECTION SITE REACTION"
1:"FATIGUE"
2:"INJECTION SITE REACTION"
3:"SHOULDER PAIN"
4:"JOINT DISLOCATION"
5:"INCONTINENCE"
]
"AESEV":[6 items
0:"MODERATE"
1:"MODERATE"
2:"MILD"
3:"MILD"
4:"MODERATE"
5:"MILD"
]
"AESER":[6 items
0:"N"
1:"N"
2:"N"
3:"N"
4:"N"
5:"N"
]
"EPOCH":[6 items
0:"TREATMENT"
1:"TREATMENT"
2:"TREATMENT"
3:"TREATMENT"
4:"TREATMENT"
5:"TREATMENT"
]
"AESTDTC":[6 items
0:"2012-12-02"
1:"2013-01-14"
2:"2012-11-16"
3:"2012-11-21"
4:"2012-11-21"
5:"2012-11-22"
]
"AEENDTC":[6 items
0:""
1:""
2:""
3:""
4:"2012-11-21"
5:""
]
"AESTDY":[6 items
0:3
1:46
2:2
3:7
4:7
5:8
]
"AEENDY":[6 items
0:NULL
1:NULL
2:NULL
3:NULL
4:7
5:NULL
]
"AEENRTPT":[6 items
0:"ONGOING"
1:"ONGOING"
2:"ONGOING"
3:"ONGOING"
4:""
5:"ONGOING"
]
"AEENTPT":[6 items
0:"2013-05-20"
1:"2013-05-20"
2:"2013-01-14"
3:"2013-01-14"
4:""
5:"2013-01-14"
]
}
}
]
"standard":{2 items
"product":"sdtmig"
"version":"3-3"
}
"codelists":[]0 items
}



