STUDYID,DOMAIN,USUBJID,CMSEQ,CMTRT,CMINDC,CMDOSE,CMDOSU,CMDOSFRQ,CMROUTE,EPOCH,CMSTDTC,CMENDTC,CMDTC,CMSTDY,CMENDY,CMSTRTPT,CMENRTPT,CMSTTPT
CDISCPILOT01,CM,CDISC001,1,ASPIRIN,PROPHYLAXIS OR NON-THERAPEUTIC USE,1,TABLET,QD,ORAL,SCREENING,2011,2013-04-29,2013-05-8,,151,BEFORE,,
CDISCPILOT01,CM,CDISC001,2,METAMUCIL,PROPHYLAXIS OR NON-THERAPEUTIC USE,1,TABLET,PRN,ORAL,SCREENING,2012-08,,2013-05-9,,,,ONGOING,2013-04-20
CDISCPILOT01,CM,CDISC001,3,"HYDROCORTISONE, TOPICAL",PROPHYLAXIS OR NON-THERAPEUTIC USE,1,TABLET,BID,TOPICAL,TREATMENT,2013-01-11,,2013-05-10,43,,BEFORE,ONGOING,2013-05-02
CDISCPILOT01,CM,CDISC001,4,HYTRIN,PROPHYLAXIS OR NON-THERAPEUTIC USE,2,TABLET,Q4H,ORAL,TREATMENT,2013-04-19,2013-05-14,2013-05-11,141,166,,,
CDISCPILOT01,CM,CDISC002,1,IBUPROFEN,HEADACHE,400,mg,ONCE,ORAL,SCREENING,2011,2013-04-29,2013-05-12,,151,BEFORE,,
CDISCPILOT01,CM,CDISC002,3,MIRENA,PROPHYLAXIS,1,TABLET,ONCE,OTHER,TREATMENT,2013-01-11,,2013-05-31,43,,BEFORE,ONGOING,2013-05-20
CDISCPILOT01,CM,CDISC001,3,"HYDROCORTISONE, TOPICAL",PROPHYLAXIS OR NON-THERAPEUTIC USE,1,TABLET,BID,TOPICAL,TREATMENT,2013-01-11,,2014-05-15,43,,BEFORE,ONGOING,2013-05-20
