STUDYID,DOMAIN,USUBJID,MHSEQ,MHTERM,MHDTC,MHSTDTC,MHSTDY,MHENDTC,MHSTRTPT,MHSTTPT
CDISCPILOT01,MH,CDISC001,1,ALZHEIMER'S DISEASE,2013-06-01,2004-05-28,-3108,2012-11-29,,
CDISCPILOT01,MH,CDISC004,1,ALZHEIMER'S DISEASE,2014-02-02,2010-11-05,-1068,2013-10-07,,
CDISCPILOT01,MH,CDISC005,1,ALZHEIMER'S DISEASE,2013-09-21,2006-08-20,-2360,2010-08-20,,
CDISCPILOT01,MH,CDISC008,1,ALZHEIMER'S DISEASE,2013-05-29,2012-11-11,-546,2013-11-11,,
CDISCPILOT01,MH,CDISC009,1,ALZHEIMER'S DISEASE,2013-05-30,2008-09-02,-1511,2010-09-02,,
CDISCPILOT01,MH,CDISC010,1,ALZHEIMER'S DISEASE,2013-05-01,2012-09-08,-378,2013-09-20,,
CDISCPILOT01,MH,CDISC011,1,ALZHEIMER'S DISEASE,2013-05-02,2002-12-01,-3659,2010-12-01,,
CDISCPILOT01,MH,CDISC014,1,ALZHEIMER'S DISEASE,2013-05-05,2011-07-25,-618,,UNKNOWN,2013-05-05
CDISCPILOT01,MH,CDISC016,1,ALZHEIMER'S DISEASE,2013-05-06,2011-04-29,-705,2012-04-29,,
CDISCPILOT01,MH,CDISC017,1,ALZHEIMER'S DISEASE,2013-05-07,2008-08-20,-1858,2010-08-20,,
CDISCPILOT01,MH,CDISC018,1,ALZHEIMER'S DISEASE,2013-05-08,2010-05-03,-959,2011-05-03,,
