STUDYID,DOMAIN,USUBJID,LBSEQ,LBTESTCD,LBTEST,LBCAT,LBORRES,LBORRESU,LBSPEC,LBDTC,LBENDTC,LBDY,LBENDY
CDISCPILOT01,LB,CDISC001,1,MCPROEXR,Monoclonal Protein Excretion Rate,URINALYSIS,BELOW QUANTIFIABLE LIMITS,g/day,URINE,2018-01-28T07:00,2018-01-29T07:00:00,-23,-22
CDISCPILOT01,LB,CDISC001,2,MSPIKEQ1,Monoclonal Protein Spike Quantity 1,URINALYSIS,0,g/day,URINE,2018-02-19T06:00,2018-02-20T06:00:00	,-1,1
