{
  "rule": {
    "Authorities": [
      {
        "Organization": "CDISC",
        "Standards": [
          {
            "Name": "SDTMIG",
            "References": [
              {
                "Citations": [
                  {
                    "Document": "Model v2.0",
                    "Item": "RDOMAIN",
                    "Section": "Comments",
                    "Cited_Guidance": "Each study must include 1 standardized set of observations in a specific structure; this is the Demographics domain described here."
                  },
                  {
                    "Document": "Model v2.0",
                    "Item": "RDOMAIN",
                    "Section": "Supplemental Qualifiers",
                    "Cited_Guidance": "Each study must include 1 standardized set of observations in a specific structure; this is the Demographics domain described here."
                  },
                  {
                    "Document": "Model v2.0",
                    "Item": "RDOMAIN",
                    "Section": "Related Records",
                    "Cited_Guidance": "Each study must incude 1 standardized set of observations in a specific structure; this is the Demographics domain described here."
                  }
                ],
                "Origin": "SDTM and SDTMIG Conformance Rules",
                "Version": "2.0",
                "Rule_Identifier": {
                  "Id": "CG0369",
                  "Version": "1"
                }
              }
            ],
            "Version": "3.4"
          },
          {
            "Name": "SDTMIG",
            "References": [
              {
                "Citations": [
                  {
                    "Document": "Model v1.4",
                    "Section": "2.2.7",
                    "Cited_Guidance": "Domain Abbreviation of the parent record(s)."
                  }
                ],
                "Origin": "SDTM and SDTMIG Conformance Rules",
                "Version": "2.0",
                "Rule_Identifier": {
                  "Id": "CG0369",
                  "Version": "1"
                }
              }
            ],
            "Version": "3.2"
          },
          {
            "Name": "SDTMIG",
            "References": [
              {
                "Citations": [
                  {
                    "Document": "Model v1.7",
                    "Section": "2.2.7",
                    "Cited_Guidance": "Domain Abbreviation of the parent record(s)."
                  }
                ],
                "Origin": "SDTM and SDTMIG Conformance Rules",
                "Version": "2.0",
                "Rule_Identifier": {
                  "Id": "CG0369",
                  "Version": "1"
                }
              }
            ],
            "Version": "3.3"
          }
        ]
      }
    ],
    "Check": {
      "all": [
        {
          "name": "RDOMAIN",
          "operator": "non_empty"
        },
        {
          "name": "RDOMAIN",
          "operator": "is_not_contained_by",
          "value": "$study_domains"
        }
      ]
    },
    "Core": {
      "Id": "CDISC.SDTMIG.CG0369",
      "Status": "Draft",
      "Version": "1"
    },
    "Description": "Raise an error when RDOMAIN is populated but the referenced RDOMAIN doesn't exist as a dataset in the present study",
    "Executability": "Fully Executable",
    "Operations": [
      {
        "id": "$study_domains",
        "operator": "study_domains"
      }
    ],
    "Outcome": {
      "Message": "RDOMAIN does not represent a dataset present in the study.",
      "Output_Variables": [
        "RDOMAIN",
        "$study_domains"
      ]
    },
    "Scope": {
      "Classes": {
        "Include": [
          "ALL"
        ]
      },
      "Domains": {
        "Include": [
          "CO",
          "RELREC",
          "SUPP--"
        ]
      }
    },
    "Sensitivity": "Dataset",
    "Rule_Type": "Record Data"
  },
  "datasets": [
    {
      "filename": "co.xpt",
      "label": "Comments",
      "domain": "CO",
      "variables": [
        {
          "name": "STUDYID",
          "label": "Study Identifier",
          "type": "Char",
          "length": 50
        },
        {
          "name": "DOMAIN",
          "label": "Domain Abbreviation",
          "type": "Char",
          "length": 50
        },
        {
          "name": "RDOMAIN",
          "label": "Related Domain Abbreviation",
          "type": "Char",
          "length": 50
        },
        {
          "name": "USUBJID",
          "label": "Unique Subject Identifier",
          "type": "Char",
          "length": 50
        },
        {
          "name": "COSEQ",
          "label": "Sequence Number",
          "type": "Num",
          "length": 8
        },
        {
          "name": "IDVAR",
          "label": "Identifying Variable",
          "type": "Char",
          "length": 50
        },
        {
          "name": "IDVARVAL",
          "label": "Identifying Variable Value",
          "type": "Char",
          "length": 50
        },
        {
          "name": "COREF",
          "label": "Comment Reference",
          "type": "Char",
          "length": 50
        },
        {
          "name": "COVAL",
          "label": "Comment",
          "type": "Char",
          "length": 50
        },
        {
          "name": "COEVAL",
          "label": "Evaluator",
          "type": "Char",
          "length": 50
        },
        {
          "name": "COEVALID",
          "label": "Evaluator Identifier",
          "type": "Char",
          "length": 50
        },
        {
          "name": "CODTC",
          "label": "Date/Time of Comment",
          "type": "Char",
          "length": 50
        },
        {
          "name": "CODY",
          "label": "Study Day of Comment",
          "type": "Num",
          "length": 8
        }
      ],
      "records": {
        "STUDYID": [
          "CDISC-PILOT-01"
        ],
        "DOMAIN": [
          "CO"
        ],
        "RDOMAIN": [
          "LB"
        ],
        "USUBJID": [
          "S001"
        ],
        "COSEQ": [
          1
        ],
        "IDVAR": [
          "LBSEQ"
        ],
        "IDVARVAL": [
          "320"
        ],
        "COREF": [
          ""
        ],
        "COVAL": [
          "test comment"
        ],
        "COEVAL": [
          ""
        ],
        "COEVALID": [
          ""
        ],
        "CODTC": [
          ""
        ],
        "CODY": [
          null
        ]
      }
    },
    {
      "filename": "relrec.xpt",
      "label": "Related Records",
      "domain": "RELREC",
      "variables": [
        {
          "name": "STUDYID",
          "label": "Study Identifier",
          "type": "Char",
          "length": 50
        },
        {
          "name": "RDOMAIN",
          "label": "Related Domain Abbreviation",
          "type": "Char",
          "length": 50
        },
        {
          "name": "USUBJID",
          "label": "Unique Subject Identifier",
          "type": "Char",
          "length": 50
        },
        {
          "name": "IDVAR",
          "label": "Identifying Variable",
          "type": "Char",
          "length": 50
        },
        {
          "name": "IDVARVAL",
          "label": "Identifying Variable Value",
          "type": "Char",
          "length": 50
        },
        {
          "name": "RELTYPE",
          "label": "Relationship Type",
          "type": "Char",
          "length": 50
        },
        {
          "name": "RELID",
          "label": "Relationship Identifier",
          "type": "Char",
          "length": 50
        }
      ],
      "records": {
        "STUDYID": [
          "CDISC-PILOT-01"
        ],
        "RDOMAIN": [
          "LB"
        ],
        "USUBJID": [
          "S001"
        ],
        "IDVAR": [
          "LBSEQ"
        ],
        "IDVARVAL": [
          "320"
        ],
        "RELTYPE": [
          "ONE"
        ],
        "RELID": [
          "1"
        ]
      }
    },
    {
      "filename": "supplb.xpt",
      "label": "Supplemental Qualifiers for Laboratory",
      "domain": "SUPPLB",
      "variables": [
        {
          "name": "STUDYID",
          "label": "Study Identifier",
          "type": "Char",
          "length": 50
        },
        {
          "name": "RDOMAIN",
          "label": "Related Domain Abbreviation",
          "type": "Char",
          "length": 50
        },
        {
          "name": "USUBJID",
          "label": "Unique Subject Identifier",
          "type": "Char",
          "length": 50
        },
        {
          "name": "IDVAR",
          "label": "Identifying Variable",
          "type": "Char",
          "length": 50
        },
        {
          "name": "IDVARVAL",
          "label": "Identifying Variable Value",
          "type": "Char",
          "length": 50
        },
        {
          "name": "QNAM",
          "label": "Qualifier Variable Name",
          "type": "Char",
          "length": 50
        },
        {
          "name": "QLABEL",
          "label": "Qualifier Variable Label",
          "type": "Char",
          "length": 50
        },
        {
          "name": "QVAL",
          "label": "Data Value",
          "type": "Char",
          "length": 50
        },
        {
          "name": "QORIG",
          "label": "Origin",
          "type": "Char",
          "length": 50
        },
        {
          "name": "QEVAL",
          "label": "Evaluator",
          "type": "Char",
          "length": 50
        }
      ],
      "records": {
        "STUDYID": [
          "CDISC-PILOT-01"
        ],
        "RDOMAIN": [
          "LB"
        ],
        "USUBJID": [
          "S001"
        ],
        "IDVAR": [
          "LBSEQ"
        ],
        "IDVARVAL": [
          "320"
        ],
        "QNAM": [
          "LBCLSIG"
        ],
        "QLABEL": [
          "Clinically Significant"
        ],
        "QVAL": [
          "Y"
        ],
        "QORIG": [
          "CRF"
        ],
        "QEVAL": [
          ""
        ]
      }
    },
    {
      "filename": "lb.xpt",
      "label": "Labotory Results",
      "domain": "LB",
      "variables": [
        {
          "name": "STUDYID",
          "label": "Study Identifier",
          "type": "Char",
          "length": 50
        },
        {
          "name": "DOMAIN",
          "label": "Domain Abbreviation",
          "type": "Char",
          "length": 50
        },
        {
          "name": "USUBJID",
          "label": "Unique Subject Identifier",
          "type": "Char",
          "length": 50
        },
        {
          "name": "LBSEQ",
          "label": "Sequence Number",
          "type": "Num",
          "length": 8
        },
        {
          "name": "LBGRPID",
          "label": "Group ID",
          "type": "Char",
          "length": 50
        },
        {
          "name": "LBREFID",
          "label": "Specimen ID",
          "type": "Char",
          "length": 50
        },
        {
          "name": "LBSPID",
          "label": "Sponsor-Defined Identifier",
          "type": "Char",
          "length": 50
        },
        {
          "name": "LBTESTCD",
          "label": "Lab Test or Examination Short Name",
          "type": "Char",
          "length": 50
        },
        {
          "name": "LBTEST",
          "label": "Lab Test or Examination Name",
          "type": "Char",
          "length": 50
        },
        {
          "name": "LBTSTCND",
          "label": "Test Condition",
          "type": "Char",
          "length": 50
        },
        {
          "name": "LBBDAGNT",
          "label": "Binding Agent",
          "type": "Char",
          "length": 50
        },
        {
          "name": "LBTSTOPO",
          "label": "Test Operational Objective",
          "type": "Char",
          "length": 50
        },
        {
          "name": "LBCAT",
          "label": "Category for Lab Test",
          "type": "Char",
          "length": 50
        },
        {
          "name": "LBSCAT",
          "label": "Subcategory for Lab Test",
          "type": "Char",
          "length": 50
        },
        {
          "name": "LBORRES",
          "label": "Result or Finding in Original Units",
          "type": "Char",
          "length": 50
        },
        {
          "name": "LBORRESU",
          "label": "Original Units",
          "type": "Char",
          "length": 50
        },
        {
          "name": "LBRESSCL",
          "label": "Result Scale",
          "type": "Char",
          "length": 50
        },
        {
          "name": "LBRESTYP",
          "label": "Result Type",
          "type": "Char",
          "length": 50
        },
        {
          "name": "LBCOLSRT",
          "label": "Collected Summary Result Type",
          "type": "Char",
          "length": 50
        },
        {
          "name": "LBORNRLO",
          "label": "Reference Range Lower Limit in Orig Unit",
          "type": "Char",
          "length": 50
        },
        {
          "name": "LBORNRHI",
          "label": "Reference Range Upper Limit in Orig Unit",
          "type": "Char",
          "length": 50
        },
        {
          "name": "LBLLOD",
          "label": "Lower Limit of Detection",
          "type": "Char",
          "length": 50
        },
        {
          "name": "LBSTRESC",
          "label": "Character Result/Finding in Std Format",
          "type": "Char",
          "length": 50
        },
        {
          "name": "LBSTRESN",
          "label": "Numeric Result/Finding in Standard Units",
          "type": "Num",
          "length": 8
        },
        {
          "name": "LBSTRESU",
          "label": "Standard Units",
          "type": "Char",
          "length": 50
        },
        {
          "name": "LBSTNRLO",
          "label": "Reference Range Lower Limit-Std Units",
          "type": "Num",
          "length": 8
        },
        {
          "name": "LBSTNRHI",
          "label": "Reference Range Upper Limit-Std Units",
          "type": "Num",
          "length": 8
        },
        {
          "name": "LBSTNRC",
          "label": "Reference Range for Char Rslt-Std Units",
          "type": "Char",
          "length": 50
        },
        {
          "name": "LBNRIND",
          "label": "Reference Range Indicator",
          "type": "Char",
          "length": 50
        },
        {
          "name": "LBSTAT",
          "label": "Completion Status",
          "type": "Char",
          "length": 50
        },
        {
          "name": "LBREASND",
          "label": "Reason Test Not Done",
          "type": "Char",
          "length": 50
        },
        {
          "name": "LBNAM",
          "label": "Vendor Name",
          "type": "Char",
          "length": 50
        },
        {
          "name": "LBLOINC",
          "label": "LOINC Code",
          "type": "Char",
          "length": 50
        },
        {
          "name": "LBSPEC",
          "label": "Specimen Type",
          "type": "Char",
          "length": 50
        },
        {
          "name": "LBSPCCND",
          "label": "Specimen Condition",
          "type": "Char",
          "length": 50
        },
        {
          "name": "LBSPCUFL",
          "label": "Specimen Usability for the Test",
          "type": "Char",
          "length": 50
        },
        {
          "name": "LBMETHOD",
          "label": "Method of Test or Examination",
          "type": "Char",
          "length": 50
        },
        {
          "name": "LBANMETH",
          "label": "Analysis Method",
          "type": "Char",
          "length": 50
        },
        {
          "name": "LBTMTHSN",
          "label": "Test Method Sensitivity",
          "type": "Char",
          "length": 50
        },
        {
          "name": "LBLOBXFL",
          "label": "Last Observation Before Exposure Flag",
          "type": "Char",
          "length": 50
        },
        {
          "name": "LBBLFL",
          "label": "Baseline Flag",
          "type": "Char",
          "length": 50
        },
        {
          "name": "LBFAST",
          "label": "Fasting Status",
          "type": "Char",
          "length": 50
        },
        {
          "name": "LBDRVFL",
          "label": "Derived Flag",
          "type": "Char",
          "length": 50
        },
        {
          "name": "LBTOX",
          "label": "Toxicity",
          "type": "Char",
          "length": 50
        },
        {
          "name": "LBTOXGR",
          "label": "Standard Toxicity Grade",
          "type": "Char",
          "length": 50
        },
        {
          "name": "LBCLSIG",
          "label": "Clinically Significant, Collected",
          "type": "Char",
          "length": 50
        },
        {
          "name": "VISITNUM",
          "label": "Visit Number",
          "type": "Num",
          "length": 8
        },
        {
          "name": "VISIT",
          "label": "Visit Name",
          "type": "Char",
          "length": 50
        },
        {
          "name": "VISITDY",
          "label": "Planned Study Day of Visit",
          "type": "Num",
          "length": 8
        },
        {
          "name": "TAETORD",
          "label": "Planned Order of Element within Arm",
          "type": "Num",
          "length": 8
        },
        {
          "name": "EPOCH",
          "label": "Epoch",
          "type": "Char",
          "length": 50
        },
        {
          "name": "LBDTC",
          "label": "Date/Time of Specimen Collection",
          "type": "Char",
          "length": 50
        },
        {
          "name": "LBENDTC",
          "label": "End Date/Time of Specimen Collection",
          "type": "Char",
          "length": 50
        },
        {
          "name": "LBDY",
          "label": "Study Day of Specimen Collection",
          "type": "Num",
          "length": 8
        },
        {
          "name": "LBENDY",
          "label": "Study Day of End of Observation",
          "type": "Num",
          "length": 8
        },
        {
          "name": "LBTPT",
          "label": "Planned Time Point Name",
          "type": "Char",
          "length": 50
        },
        {
          "name": "LBTPTNUM",
          "label": "Planned Time Point Number",
          "type": "Num",
          "length": 8
        },
        {
          "name": "LBELTM",
          "label": "Planned Elapsed Time from Time Point Ref",
          "type": "Char",
          "length": 50
        },
        {
          "name": "LBTPTREF",
          "label": "Time Point Reference",
          "type": "Char",
          "length": 50
        },
        {
          "name": "LBRFTDTC",
          "label": "Date/Time of Reference Time Point",
          "type": "Char",
          "length": 50
        },
        {
          "name": "LBPTFL",
          "label": "Point in Time Flag",
          "type": "Char",
          "length": 50
        },
        {
          "name": "LBPDUR",
          "label": "Planned Duration",
          "type": "Char",
          "length": 50
        }
      ],
      "records": {
        "STUDYID": [
          "CDISC-PILOT-01"
        ],
        "DOMAIN": [
          "LB"
        ],
        "USUBJID": [
          "S001"
        ],
        "LBSEQ": [
          320
        ],
        "LBGRPID": [
          ""
        ],
        "LBREFID": [
          ""
        ],
        "LBSPID": [
          ""
        ],
        "LBTESTCD": [
          ""
        ],
        "LBTEST": [
          ""
        ],
        "LBTSTCND": [
          ""
        ],
        "LBBDAGNT": [
          ""
        ],
        "LBTSTOPO": [
          ""
        ],
        "LBCAT": [
          ""
        ],
        "LBSCAT": [
          ""
        ],
        "LBORRES": [
          ""
        ],
        "LBORRESU": [
          ""
        ],
        "LBRESSCL": [
          ""
        ],
        "LBRESTYP": [
          ""
        ],
        "LBCOLSRT": [
          ""
        ],
        "LBORNRLO": [
          ""
        ],
        "LBORNRHI": [
          ""
        ],
        "LBLLOD": [
          ""
        ],
        "LBSTRESC": [
          ""
        ],
        "LBSTRESN": [
          null
        ],
        "LBSTRESU": [
          ""
        ],
        "LBSTNRLO": [
          null
        ],
        "LBSTNRHI": [
          null
        ],
        "LBSTNRC": [
          ""
        ],
        "LBNRIND": [
          ""
        ],
        "LBSTAT": [
          ""
        ],
        "LBREASND": [
          ""
        ],
        "LBNAM": [
          ""
        ],
        "LBLOINC": [
          ""
        ],
        "LBSPEC": [
          ""
        ],
        "LBSPCCND": [
          ""
        ],
        "LBSPCUFL": [
          ""
        ],
        "LBMETHOD": [
          ""
        ],
        "LBANMETH": [
          ""
        ],
        "LBTMTHSN": [
          ""
        ],
        "LBLOBXFL": [
          ""
        ],
        "LBBLFL": [
          ""
        ],
        "LBFAST": [
          ""
        ],
        "LBDRVFL": [
          ""
        ],
        "LBTOX": [
          ""
        ],
        "LBTOXGR": [
          ""
        ],
        "LBCLSIG": [
          ""
        ],
        "VISITNUM": [
          null
        ],
        "VISIT": [
          ""
        ],
        "VISITDY": [
          null
        ],
        "TAETORD": [
          null
        ],
        "EPOCH": [
          ""
        ],
        "LBDTC": [
          ""
        ],
        "LBENDTC": [
          ""
        ],
        "LBDY": [
          null
        ],
        "LBENDY": [
          null
        ],
        "LBTPT": [
          ""
        ],
        "LBTPTNUM": [
          null
        ],
        "LBELTM": [
          ""
        ],
        "LBTPTREF": [
          ""
        ],
        "LBRFTDTC": [
          ""
        ],
        "LBPTFL": [
          ""
        ],
        "LBPDUR": [
          ""
        ]
      }
    }
  ],
  "standard": {
    "product": "sdtmig",
    "version": "3-4"
  },
  "codelists": []
}