STUDYID,DOMAIN,USUBJID,MHSEQ,MHTERM,MHLLT,MHLLTCD,MHDECOD,MHPTCD,MHHLT,MHHLTCD,MHHLGT,MHHLGTCD,MHBODSYS,MHBDSYCD,MHSOC,MHSOCCD,MHEVDTYP,MHSTDTC,MHSTDY
CDISCPILOT01,MH,CDISC001,1,ALZHEIMER'S DISEASE,Alzheimer's disease,10001896,Dementia Alzheimer's type,10012271,Alzheimer's disease (incl subtypes),10001897,Mental impairment disorders,10057167,Nervous system disorders,10029205,Nervous system disorders,10029205,SYMPTOM ONSET,2004-05-28,-3108
CDISCPILOT01,MH,CDISC002,1,ALZHEIMER'S DISEASE,Alzheimer's disease,10001896,Dementia Alzheimer's type,10012271,Alzheimer's disease (incl subtypes),10001897,Mental impairment disorders,10057167,Nervous system disorders,10029205,Nervous system disorders,10029205,SYMPTOM ONSET,2010-03-19,-972
CDISCPILOT01,MH,CDISC003,1,ALZHEIMER'S DISEASE,Alzheimer's disease,10001896,Dementia Alzheimer's type,10012271,Alzheimer's disease (incl subtypes),10001897,Mental impairment disorders,10057167,Nervous system disorders,10029205,Nervous system disorders,10029205,SYMPTOM ONSET,2007-02-09,-2393
CDISCPILOT01,MH,CDISC004,1,ALZHEIMER'S DISEASE,Alzheimer's disease,10001896,Dementia Alzheimer's type,10012271,Alzheimer's disease (incl subtypes),10001897,Mental impairment disorders,10057167,Nervous system disorders,10029205,Nervous system disorders,10029205,SYMPTOM ONSET,2010-11-05,-1068
CDISCPILOT01,MH,CDISC005,1,ALZHEIMER'S DISEASE,Alzheimer's disease,10001896,Dementia Alzheimer's type,10012271,Alzheimer's disease (incl subtypes),10001897,Mental impairment disorders,10057167,Nervous system disorders,10029205,Nervous system disorders,10029205,SYMPTOM ONSET,2006-08-20,-2360
