STUDYID,DOMAIN,USUBJID,SPDEVID,EXSEQ,EXTRT,EXDOSE,EXDOSU,EXDOSFRM,EXDOSFRQ,EXROUTE,EXLOT,EPOCH,EXSTDTC,EXENDTC,EXSTDY,EXENDY
CDISCPILOT01,EX,CDISC001,DEV0001,1,ZANOMALINE,54,mg,INJECTION,QD,SUBCUTANEOUS,SDS580-359,TREATMENT,2012-11-30,2012-11-30,1,1
