dataset,variable,label,type,length
dm.xpt,STUDYID,Study Identifier,Char,12
dm.xpt,DOMAIN,Domain Abbreviation,Char,2
dm.xpt,USUBJID,Unique Subject Identifier,Char,20
dm.xpt,SUBJID,Subject Identifier for the Study,Char,12
dm.xpt,RFSTDTC,Subject Reference Start Date/Time,Char,10
dm.xpt,RFENDTC,Subject Reference End Date/Time,Char,10
dm.xpt,RFXSTDTC,Date/Time of First Study Treatment,Char,10
dm.xpt,RFXENDTC,Date/Time of Last Study Treatment,Char,10
dm.xpt,ARMCD,Planned Arm Code,Char,8
dm.xpt,ARM,Description of Planned Arm,Char,28
dm.xpt,SETCD,Set Code,Char,8
tx.xpt,STUDYID,Study Identifier,Char,12
tx.xpt,DOMAIN,Domain Abbreviation,Char,2
tx.xpt,SETCD,Set Code,Char,8
tx.xpt,TXSEQ,Subject Identifier for the Study,Num,2
vs.xpt,STUDYID,Study Identifier,Char,12
vs.xpt,DOMAIN,Domain Abbreviation,Char,2
vs.xpt,USUBJID,Unique Subject Identifier,Char,8
vs.xpt,VSSEQ,Sequence Number,Num,8
vs.xpt,VSTESTCD,Vital Signs Test Short Name,Char,8
vs.xpt,VSTEST,Vital Signs Test Name,Char,24
vs.xpt,VSPOS,Vital Signs Position of Subject,Char,8
vs.xpt,VSORRES,Result or Finding in Original Units,Char,8
vs.xpt,VSORRESU,Original Units,Char,9
vs.xpt,VSSTRESC,Character Result/Finding in Std Format,Char,200
vs.xpt,VSSTRESN,Numeric Result/Finding in Standard Units,Num,8
vs.xpt,VSSTRESU,Standard Units,Char,9
vs.xpt,VSSTAT,Completion Status,Char,8
vs.xpt,VSLOC,Location of Vital Signs Measurement,Char,11
vs.xpt,VSLOBXFL,Last Observation Before Exposure Flag,Char,1
vs.xpt,VSREPNUM,Repetition Number,Num,8
vs.xpt,VISITNUM,Visit Number,Num,8
vs.xpt,VISIT,Visit Name,Char,200
vs.xpt,EPOCH,Epoch,Char,9
vs.xpt,VSDTC,Date/Time of Measurements,Char,10
vs.xpt,VSDY,Study Day of Vital Signs,Num,8
