DOMAIN,USUBJID,LBTESTCD,LBTEST,LBCAT,LBORRES,LBORRESU,LBORNRLO,LBORNRHI,LBSTRESC,LBSTRESN,LBSTRESU,LBSTNRLO,LBSTNRHI
LB,CDISC-TEST-001,ALB,Albumin,BIOCHEMISTRY,24.6,g/dL,1,50,4.46,4.46,g/dL,1,50
LB,CDISC-TEST-001,HBA1CHGB,Hemoglobin A1C/Hemoglobin,GLUCOSE METABOLISM,35.1,mmol/mol,2,48,77.87,77.87,mmol/mol,2,48
LB,CDISC-TEST-002,HBA1CHGB,Hemoglobin A1C/Hemoglobin,GLUCOSE METABOLISM,,mmol/mol,,,,,mmol/mol,,
