STUDYID,DOMAIN,USUBJID,SUBJID,RFSTDTC,RFENDTC,RFXSTDTC,RFXENDTC,RFICDTC,RFPENDTC,DTHDTC,DTHFL,SITEID,AGE,AGEU,SEX,RACE,ARMCD,ARM,ACTARMCD,ACTARM,COUNTRY
ABC123,DM,CDISC-TEST-001,001,2019-03-12,2019-09-10,2019-03-12,2019-09-10,2019-02-25,2019-10-10,,,102,26,YEARS,F,,A,HUMAN INSULIN,A,HUMAN INSULIN,FRA
ABC123,DM,CDISC-TEST-002,002,2019-01-30,2019-07-31,2019-01-30,2019-07-31,2019-01-15,2019-08-30,,,103,34,YEARS,M,,A,HUMAN INSULIN,A,HUMAN INSULIN,JPN
ABC123,DM,CDISC-TEST-003,003,2019-01-26,2019-07-27,2019-01-26,2019-07-27,2019-01-11,2019-08-26,,,102,57,YEARS,F,,B,METFORMIN,B,METFORMIN,FRA
ABC123_test,DM,CDISC-TEST-004,004,2019-02-16,2019-08-17,2019-02-16,2019-08-17,2019-02-01,2019-09-16,,,102,31,YEARS,F,,A,HUMAN INSULIN,A,HUMAN INSULIN,FRA
