STUDYID,DOMAIN,USUBJID,AETERM,AESER,AEOUT,AESTDTC,AESTDY,AEENDTC,AEENDY
CDISCPILOT01,AE,CDISC001,INFUSION ASSOCIATE REACTION,N,RECOVERED/RESOLVED,2018-02-20,1,2018-02-20,1
CDISCPILOT01,AE,CDISC001,INSOMNIA,N,RECOVERED/RESOLVED,2018-02-22,3,2018-10-30,253
CDISCPILOT01,AE,CDISC001,LETHARGY,N,RECOVERED/RESOLVED,2018-02-22,3,2018-06-12,113
CDISCPILOT01,AE,CDISC002,LEFT HIP PAIN CAUSE UNKNOWN,N,RECOVERED/RESOLVED,2018-04-16,8,2018-04-23,7
CDISCPILOT01,AE,CDISC002,FATIGUE,N,RECOVERED/RESOLVED,2018-05-02,16,2019-03,
