STUDYID,DOMAIN,USUBJID,AESEQ,AELNKID,AETERM,AESEV,AESER,EPOCH,AESTDTC,AEENDTC,AESTDY,AEENDY,AEENRTPT,AEENTPT
CDISCPILOT01,AE,CDISC001,1,1,INJECTION SITE REACTION,MODERATE,N,TREATMENT,2012-12-02,,3,,ONGOING,2013-05-20
CDISCPILOT01,AE,CDISC001,2,2,FATIGUE,MODERATE,N,TREATMENT,2013-01-14,,46,,ONGOING,2013-05-20
CDISCPILOT01,AE,CDISC002,1,1,INJECTION SITE REACTION,MILD,N,TREATMENT,2012-11-16,,2,,ONGOING,2013-01-14
CDISCPILOT01,AE,CDISC002,2,2,SHOULDER PAIN,MILD,N,TREATMENT,2012-11-21,,7,,ONGOING,2013-01-14
CDISCPILOT01,AE,CDISC002,3,3,JOINT DISLOCATION,MODERATE,N,TREATMENT,2012-11-21,2012-11-21,7,7,,
CDISCPILOT01,AE,CDISC002,4,4,INCONTINENCE,MILD,N,TREATMENT,2012-11-22,,8,,ONGOING,2013-01-14
