STUDYID,DOMAIN,USUBJID,MKSEQ,MKTESTCD,MKTEST,MKORRES,MKEVAL,MKEVALID
XYZ,MK,XYZ-002,1,SGJSNSCR,Sharp/Genant JSN Score,MODERATE; 51-75% LOSS OF JOINT SPACE,INDEPENDENT ASSESSOR,READER 1
XYZ,MK,XYZ-002,2,SGJSNSCR,Sharp/Genant JSN Score,MODERATE- SEVERE; 76-95% LOSS OF JOINT SPACE,INDEPENDENT ASSESSOR,READER 1
XYZ,MK,XYZ-002,3,SGJSNSCR,Sharp/Genant JSN Score,,INDEPENDENT ASSESSOR,READER 1
XYZ,MK,XYZ-002,4,SGJSNSCR,Sharp/Genant JSN Score,SEVERE; PARTIAL OR EQUIVOCAL ANKYLOSIS,INDEPENDENT ASSESSOR,READER 1
XYZ,MK,XYZ-002,5,SGJSNSCR,Sharp/Genant JSN Score,MODERATE; 51-75% LOSS OF JOINT SPACE,INDEPENDENT ASSESSOR,READER 1
XYZ,MK,XYZ-002,6,SGJSNSCR,Sharp/Genant JSN Score,,INDEPENDENT ASSESSOR,READER 1
XYZ,MK,XYZ-002,7,SGJSNSCR,Sharp/Genant JSN Score,MODERATE-SEVERE; 76-95% LOSS OF JOINT SPACE,INDEPENDENT ASSESSOR,READER 1
XYZ,MK,XYZ-002,8,SGJSNSCR,Sharp/Genant JSN Score,SEVERE; PARTIAL OR EQUIVOCAL ANKYLOSIS,INDEPENDENT ASSESSOR,READER 1
