STUDYID,DOMAIN,USUBJID,RSSEQ,RSTESTCD,RSTEST,RSCAT,RSORRES,RSEVAL,RSEVALID
ABC,RS,55555,1,TRGRESP,Target Response,RECIST 1.1,PR,INDEPENDENT ASSESSOR,RADIOLOGIST 1
ABC,RS,55555,2,NTRGRESP,Non-target Response,RECIST 1.1,CR,INDEPENDENT ASSESSOR,RADIOLOGIST 1
ABC,RS,55555,3,NEWLPROG,New Lesion Progression,RECIST 1.1,EQUIVOCAL,INDEPENDENT ASSESSOR,RADIOLOGIST 1
ABC,RS,55555,4,OVRLRESP,Overall Response,RECIST 1.1,PR,INDEPENDENT ASSESSOR,RADIOLOGIST 1
ABC,RS,55555,5,TRGRESP,Target Response,RECIST 1.1,PD,INDEPENDENT ASSESSOR,RADIOLOGIST 1
ABC,RS,55555,6,NTRGRESP,Non-target Response,RECIST 1.1,CR,INDEPENDENT ASSESSOR,RADIOLOGIST 1
ABC,RS,55555,7,NEWLPROG,New Lesion Progression,RECIST 1.1,UNEQUIVOCAL,INDEPENDENT ASSESSOR,RADIOLOGIST 1
ABC,RS,55555,8,OVRLRESP,Overall Response,RECIST 1.1,PD,INDEPENDENT ASSESSOR,RADIOLOGIST 1
