STUDYID,DOMAIN,USUBJID,TUSEQ,TUTESTCD,TUTEST,TUORRES,TUEVAL,TUEVALID
ABC,TU,55555,1,TUMIDENT,Tumor Identification,TARGET,INDEPENDENT ASSESSOR,RADIOLOGIST 1
ABC,TU,55555,2,TUMIDENT,Tumor Identification,TARGET,INDEPENDENT ASSESSOR,RADIOLOGIST 1
ABC,TU,55555,3,TUMIDENT,Tumor Identification,TARGET,INDEPENDENT ASSESSOR,RADIOLOGIST 1
ABC,TU,55555,4,TUMIDENT,Tumor Identification,NON-TARGET,INDEPENDENT ASSESSOR,RADIOLOGIST 1
ABC,TU,55555,5,TUMIDENT,Tumor Identification,NON-TARGET,INDEPENDENT ASSESSOR,RADIOLOGIST 1
ABC,TU,55555,6,TUMIDENT,Tumor Identification,NEW,INDEPENDENT ASSESSOR,RADIOLOGIST 1
