STUDYID,DOMAIN,USUBJID,SUBJID,RFSTDTC,RFENDTC,RFXSTDTC,RFXENDTC,RFCSTDTC,RFCENDTC,RFICDTC,RFPENDTC,DTHDTC,DTHFL,SITEID,INVID,INVNAM,BRTHDTC,AGE,AGEU,SEX,RACE,ETHNIC,ARMCD,ARM,ACTARMCD,ACTARM,ARMNRS,ACTARMUD,COUNTRY,DMDTC,DMDY
TEST-1,DM,TEST-1-001,001,2022-03-20,,,,,,,,,,,,,,,,,,,,,,,,,,,
TEST-2,DM,TEST-2-001,001,2022-03-20,,,,,,,,,,,,,,,,,,,,,,,,,,,
