dataset,variable,label,type,length
ae,STUDYID,Study Identifier,Char,12
ae,DOMAIN,Domain Abbreviation,Char,2
ae,USUBJID,Unique Subject Identifier,Char,8
ae,AESEQ,Sequence Number,Num,8
ae,AELNKID,Link ID,Char,50
ae,AELNKGRP,Link Group ID,Char,50
ae,AETERM,Reported Term for the Adverse Event,Char,200
ae,AESEV,Severity/Intensity,Char,8
ae,AESER,Serious Event,Char,1
ae,AEACN,Action Taken with Study Treatment,Char,16
ae,AEREL,Causality,Char,16
ae,AEOUT,Outcome of Adverse Event,Char,32
ae,AESCAN,Involves Cancer,Char,1
ae,AESLIFE,Is Life Threatening,Char,1
ae,EPOCH,Epoch,Char,9
ae,AESTDTC,Start Date/Time of Adverse Event,Char,10
ae,AEENDTC,End Date/Time of Adverse Event,Char,10
ae,AESTDY,Study Day of Start of Adverse Event,Num,8
ae,AEENDY,Study Day of End of Adverse Event,Num,8
ae,AEENRTPT,End Relative to Reference Time Point,Char,7
ae,AEENTPT,End Reference Time Point,Char,10
fa,STUDYID,Study Identifier,Char,12
fa,DOMAIN,Domain Abbreviation,Char,2
fa,USUBJID,Unique Subject Identifier,Char,8
fa,FASEQ,Sequence Number,Num,8
fa,FALNKGRP,Link Group ID,Char,200
fa,FATESTCD,Findings About Test Short Name,Char,5
fa,FATEST,Findings About Test Name,Char,20
fa,FAOBJ,Object of the Observation,Char,10
fa,FACAT,Category for Findings About,Char,23
fa,FAORRES,Result or Finding in Original Units,Char,8
fa,FASTRESC,Character Result/Finding in Std Format,Char,8
fa,FALOC,Location of the Finding About,Char,3
fa,VISITNUM,Visit Number,Num,8
fa,EPOCH,Epoch,Char,9
fa,FADTC,Date/Time of Collection,Char,10
fa,FADY,Study Day of Collection,Num,8
vs,STUDYID,Study Identifier,Char,12
vs,DOMAIN,Domain Abbreviation,Char,2
vs,USUBJID,Unique Subject Identifier,Char,8
vs,VSSEQ,Sequence Number,Num,8
vs,VSTESTCD,Vital Signs Test Short Name,Char,6
vs,VSTEST,Vital Signs Test Name,Char,24
vs,VSPOS,Vital Signs Position of Subject,Char,8
vs,VSORRES,Result or Finding in Original Units,Char,8
vs,VSORRESU,Original Units,Char,9
vs,VSSTRESC,Character Result/Finding in Std Format,Char,200
vs,VSSTRESN,Numeric Result/Finding in Standard Units,Num,8
vs,VSSTRESU,Standard Units,Char,9
vs,VSSTAT,Completion Status,Char,8
vs,VSLOC,Location of Vital Signs Measurement,Char,11
vs,VSLOBXFL,Last Observation Before Exposure Flag,Char,1
vs,VSREPNUM,Repetition Number,Num,8
vs,VISITNUM,Visit Number,Num,8
vs,VISIT,Visit Name,Char,200
vs,EPOCH,Epoch,Char,9
vs,VSDTC,Date/Time of Measurements,Char,10
vs,VSDY,Study Day of Vital Signs,Num,8
