STUDYID,DOMAIN,USUBJID,PCSEQ,PCTESTCD,PCTEST,PCORRES,PCORRESU,PCSTRESC,PCSTRESN,PCSTRESU,PCSTAT,PCLLOQ,PCTPTREF,PCELTM
1234,PC,123101,1,DRUGX,Study Drug,9,ug/mL,,,ug/mL,,10,Reference P1,P21D
1234,PC,123101,2,DRUGX,Study Drug,10,ug/mL,10,10,ug/mL,,10,Reference P2,P7D
1234,PC,123101,2,DRUGX,Study Drug,11,ug/mL,11,11,ug/mL,,10,Reference P2,PT21H
