STUDYID,DOMAIN,USUBJID,PPSEQ,PPGRPID,PPTESTCD,PPTEST,PPCAT,PPSCAT,PPORRES,PPORRESU,PPSTRESC,PPSTRESN,PPSTRESU,PPSTAT,PPREASND,PPSPEC,PPANMETH,TAETORD,EPOCH,PPDTC,PPDY,PPTPTREF,PPRFTDTC,PPSTINT,PPENINT
