{
    "rule": {
        "Authorities": [
            {
                "Organization": "CDISC",
                "Standards": [
                    {
                        "Name": "SDTMIG",
                        "References": [
                            {
                                "Citations": [
                                    {
                                        "Document": "IG v3.4",
                                        "Item": "Assumption 2.b.2",
                                        "Section": "6.2.3",
                                        "Cited_Guidance": "DSSCAT = 'STUDY TREATMENT' can be used as a generic identifier when a study has only a single treatment."
                                    },
                                    {
                                        "Document": "IG v3.4",
                                        "Item": "Assumption 2.b.3",
                                        "Section": "6.2.3",
                                        "Cited_Guidance": "If a study has multiple treatments, then DSSCAT should name the individual treatment."
                                    }
                                ],
                                "Origin": "SDTM and SDTMIG Conformance Rules",
                                "Version": "2.0",
                                "Rule_Identifier": {
                                    "Id": "CG0539",
                                    "Version": "1"
                                }
                            }
                        ],
                        "Version": "3.4"
                    },
                    {
                        "Name": "SDTMIG",
                        "References": [
                            {
                                "Citations": [
                                    {
                                        "Document": "IG v3.3",
                                        "Item": "Assumption 2.b.2|Assumption 2.b.3",
                                        "Section": "6.2.3 DS",
                                        "Cited_Guidance": "Assumption 2.b.2[DSSCAT = 'STUDY TREATMENT' can be used as a generic identifier when a study has only a single treatment.]|Assumption 2.b.3[If a study has multiple treatments, then DSSCAT should name the individual treatment.]"
                                    }
                                ],
                                "Origin": "SDTM and SDTMIG Conformance Rules",
                                "Version": "2.0",
                                "Rule_Identifier": {
                                    "Id": "CG0539",
                                    "Version": "1"
                                }
                            }
                        ],
                        "Version": "3.3"
                    }
                ]
            }
        ],
        "Check": {
            "all": [
                {
                    "name": "$disposition_event_count",
                    "operator": "greater_than",
                    "value": 1
                },
                {
                    "name": "DSSCAT",
                    "operator": "equal_to",
                    "value": "STUDY TREATMENT",
                    "value_is_literal": true
                },
                {
                    "name": "DSSCAT",
                    "operator": "is_not_unique_set",
                    "value": [
                        "USUBJID",
                        "EPOCH"
                    ]
                }
            ]
        },
        "Core": {
            "Id": "CORE-000215",
            "Status": "Published",
            "Version": "1"
        },
        "Description": "Trigger error when subject has more than one record per Epoch with DSCAT = 'DISPOSITION EVENT' and more than one record where DSSCAT = 'STUDY TREATMENT'",
        "Executability": "Fully Executable",
        "Operations": [
            {
                "domain": "DS",
                "filter": {
                    "DSCAT": "DISPOSITION EVENT"
                },
                "group": [
                    "USUBJID",
                    "EPOCH"
                ],
                "id": "$disposition_event_count",
                "name": "DSCAT",
                "operator": "record_count"
            }
        ],
        "Outcome": {
            "Message": "More than 1 record exists per subject per EPOCH with DSCAT = 'DISPOSITION EVENT' and DSSCAT = 'STUDY TREATMENT'.",
            "Output_Variables": [
                "USUBJID",
                "DSCAT",
                "DSSCAT"
            ]
        },
        "Scope": {
            "Classes": {
                "Include": [
                    "EVENTS"
                ]
            },
            "Domains": {
                "Include": [
                    "DS"
                ]
            }
        },
        "Sensitivity": "Record",
        "Rule_Type": "Record Data"
    },
    "datasets": [
        {
            "filename": "ds.xpt",
            "label": "Subject Disposition",
            "domain": "DS",
            "variables": [
                {
                    "name": "STUDYID",
                    "label": "Study Identifier",
                    "type": "Char",
                    "length": 50
                },
                {
                    "name": "DOMAIN",
                    "label": "Domain Abbreviation",
                    "type": "Char",
                    "length": 50
                },
                {
                    "name": "USUBJID",
                    "label": "Unique Subject Identifier",
                    "type": "Char",
                    "length": 50
                },
                {
                    "name": "DSSEQ",
                    "label": "Sequence Number",
                    "type": "Num",
                    "length": 8
                },
                {
                    "name": "DSTERM",
                    "label": "Reported Term for the Disposition Event",
                    "type": "Char",
                    "length": 50
                },
                {
                    "name": "DSDECOD",
                    "label": "Standardized Disposition Term",
                    "type": "Char",
                    "length": 50
                },
                {
                    "name": "DSCAT",
                    "label": "Category for Disposition Event",
                    "type": "Char",
                    "length": 50
                },
                {
                    "name": "DSSCAT",
                    "label": "Subcategory for Disposition Event",
                    "type": "Char",
                    "length": 50
                },
                {
                    "name": "EPOCH",
                    "label": "Epoch",
                    "type": "Char",
                    "length": 50
                },
                {
                    "name": "DSDTC",
                    "label": "Date/Time of Collection",
                    "type": "Char",
                    "length": 50
                },
                {
                    "name": "DSSTDTC",
                    "label": "Start Date/Time of Disposition Event",
                    "type": "Char",
                    "length": 50
                },
                {
                    "name": "DSDY",
                    "label": "Study Day of Collection",
                    "type": "Num",
                    "length": 8
                },
                {
                    "name": "DSSTDY",
                    "label": "Study Day of Start of Disposition Event",
                    "type": "Num",
                    "length": 8
                }
            ],
            "records": {
                "STUDYID": [
                    "CDISC-TEST",
                    "CDISC-TEST",
                    "CDISC-TEST",
                    "CDISC-TEST",
                    "CDISC-TEST",
                    "CDISC-TEST"
                ],
                "DOMAIN": [
                    "DS",
                    "DS",
                    "DS",
                    "DS",
                    "DS",
                    "DS"
                ],
                "USUBJID": [
                    "S001",
                    "S001",
                    "S002",
                    "S002",
                    "S002",
                    "S003"
                ],
                "DSSEQ": [
                    1,
                    2,
                    1,
                    2,
                    3,
                    4
                ],
                "DSTERM": [
                    "COMPLETED",
                    "COMPLETED",
                    "COMPLETED",
                    "COMPLETED",
                    "COMPLETED",
                    "COMPLETED"
                ],
                "DSDECOD": [
                    "COMPLETED",
                    "COMPLETED",
                    "COMPLETED",
                    "COMPLETED",
                    "COMPLETED",
                    "COMPLETED"
                ],
                "DSCAT": [
                    "DISPOSITION EVENT",
                    "DISPOSITION EVENT",
                    "DISPOSITION EVENT",
                    "DISPOSITION EVENT",
                    "DISPOSITION EVENT",
                    "DISPOSITION EVENT"
                ],
                "DSSCAT": [
                    "STUDY TREATMENT",
                    "STUDY TREATMENT1",
                    "STUDY TREATMENT2",
                    "STUDY TREATMENT",
                    "STUDY TREATMENT",
                    "STUDY TREATMENT"
                ],
                "EPOCH": [
                    "TREATMENT",
                    "TREATMENT",
                    "TREATMENT",
                    "SCREENING",
                    "SCREENING2",
                    "SCREENING"
                ],
                "DSDTC": [
                    "",
                    "",
                    "",
                    "",
                    "",
                    ""
                ],
                "DSSTDTC": [
                    "",
                    "",
                    "",
                    "",
                    "",
                    ""
                ],
                "DSDY": [
                    null,
                    null,
                    null,
                    null,
                    null,
                    null
                ],
                "DSSTDY": [
                    null,
                    null,
                    null,
                    null,
                    null,
                    null
                ]
            }
        }
    ],
    "standard": {
        "product": "sdtmig",
        "version": "3-4"
    },
    "codelists": []
}