STUDYID,DOMAIN,USUBJID,VISITNUM,VISIT,SVDTC,SVSTDTC,SVENDTC,SVDY,SVSTDY,SVENDY,SVENRTPT,SVENTPT,SVUPDES
CDISCPILOT01,SV,CDISC001,1,SCREENING 1,2012-11-23,2012-11-23,2012-11-23,1,-7,-7,,,
CDISCPILOT01,SV,CDISC001,2,SCREENING 2,2012-11-28,2012-11-28,2012-11-28,2,-2,-2,AFTER,,
CDISCPILOT01,SV,CDISC001,3,BASELINE,2012-11-30,2012-11-30,2012-11-30,3,1,1,,,
CDISCPILOT01,SV,CDISC001,4,WEEK 2,2012-12-13,2012-12-13,2012-12-13,4,14,14,,,
CDISCPILOT01,SV,CDISC001,5,WEEK 4,2012-12-26,2012-12-26,2012-12-26,5,27,27,,,
CDISCPILOT01,SV,CDISC001,5.01,WEEK 4: UNSCHEDULED 01,2012-12-28,2012-12-28,2012-12-28,6,29,29,,,UNSCHEDULED LABS
CDISCPILOT01,SV,CDISC001,7,WEEK 6,2013-01-10,2013-01-10,2013-01-10,7,42,42,,,
CDISCPILOT01,SV,CDISC001,8,WEEK 8,2013-01-23,2013-01-23,2013-01-23,8,55,55,,,
CDISCPILOT01,SV,CDISC001,101,EARLY DISCONTINUATION,2013-02-14,2013-02-14,2013-02-14,9,77,77,,,
CDISCPILOT01,SV,CDISC001,201,EARLY DISCONTINUATION RETRIEVAL,2013-05-20,2013-05-20,2013-05-20,10,172,172,,,
