{
  "rule": {
    "Authorities": [
      {
        "Organization": "CDISC",
        "Standards": [
          {
            "Name": "SDTMIG",
            "References": [
              {
                "Citations": [
                  {
                    "Document": "IG v3.4",
                    "Item": "6",
                    "Section": "4.1.7",
                    "Cited_Guidance": "For domains with two-letter domain codes (i.e., other than SUPPxx and RELREC), split dataset names can be up to four characters in length... The four-character dataset-name limitation allows the use of a Supplemental Qualifier dataset associated with the split dataset"
                  },
                  {
                    "Document": "AP Guide v1.0",
                    "Section": "2",
                    "Cited_Guidance": "AP domain codes are therefore four characters long."
                  }
                ],
                "Origin": "SDTM and SDTMIG Conformance Rules",
                "Version": "2.0",
                "Rule_Identifier": {
                  "Id": "CG0017",
                  "Version": "2"
                }
              }
            ],
            "Version": "3.4"
          },
          {
            "Name": "SDTMIG",
            "References": [
              {
                "Citations": [
                  {
                    "Document": "IG v3.2|AP Guide v1.0",
                    "Item": "Rule 6",
                    "Section": "4.1.1.7|2",
                    "Cited_Guidance": "4.1.1.7[Split dataset names can be up to four characters in length. For example, if splitting by --CAT, then dataset names would be the domain name plus up to two additional characters (e.g., QS36 for SF-36). If splitting Findings About by parent domain, then the dataset name would be the domain name plus the two-character domain code describing the parent domain code (e.g., FACM).]|2[AP domain codes are therefore four characters long.]"
                  }
                ],
                "Origin": "SDTM and SDTMIG Conformance Rules",
                "Version": "2.0",
                "Rule_Identifier": {
                  "Id": "CG0017",
                  "Version": "2"
                }
              }
            ],
            "Version": "3.2"
          },
          {
            "Name": "SDTMIG",
            "References": [
              {
                "Citations": [
                  {
                    "Document": "IG v3.3|AP Guide v1.0",
                    "Item": "Rule 6",
                    "Section": "4.1.7|2",
                    "Cited_Guidance": "4.1.7[Split dataset names can be up to four characters in length. For example, if splitting by --CAT, then dataset names would be the domain name plus up to two additional characters (e.g., QS36 for SF-36). If splitting Findings About by parent domain, then the dataset name would be the domain name plus the two-character domain code describing the parent domain code (e.g., FACM).]|2[AP domain codes are therefore four characters long.]"
                  }
                ],
                "Origin": "SDTM and SDTMIG Conformance Rules",
                "Version": "2.0",
                "Rule_Identifier": {
                  "Id": "CG0017",
                  "Version": "2"
                }
              }
            ],
            "Version": "3.3"
          }
        ]
      }
    ],
    "Check": {
      "any": [
        {
          "name": "dataset_name",
          "operator": "shorter_than",
          "value": 3
        },
        {
          "name": "dataset_name",
          "operator": "longer_than",
          "value": 4
        }
      ]
    },
    "Core": {
      "Id": "CDISC.SDTMIG.CG0017",
      "Status": "Draft",
      "Version": "1"
    },
    "Description": "Split datasets (excluding supplemental qualifiers) is expected to have a have a length of 3 or 4 characters",
    "Executability": "Fully Executable",
    "Outcome": {
      "Message": "Split dataset name is not 3 or 4 characters in length"
    },
    "Scope": {
      "Classes": {
        "Include": [
          "ALL"
        ]
      },
      "Domains": {
        "Exclude": [
          "SUPP--",
          "AP--"
        ],
        "include_split_datasets": true
      }
    },
    "Sensitivity": "Dataset",
    "Rule_Type": "Dataset Metadata Check"
  },
  "datasets": [
    {
      "filename": "qscg.xpt",
      "label": "Clinical Global Impressions",
      "domain": "QS",
      "variables": [
        {
          "name": "STUDYID",
          "label": "Study Identifier",
          "type": "Char",
          "length": 12
        },
        {
          "name": "DOMAIN",
          "label": "Domain Abbreviation",
          "type": "Char",
          "length": 4
        },
        {
          "name": "USUBJID",
          "label": "Unique Subject Identifier",
          "type": "Char",
          "length": 8
        },
        {
          "name": "QSSEQ",
          "label": "Sequence Number",
          "type": "Num",
          "length": 8
        },
        {
          "name": "QSTESTCD",
          "label": "Question Short Name",
          "type": "Char",
          "length": 7
        },
        {
          "name": "QSTEST",
          "label": "Question Name",
          "type": "Char",
          "length": 40
        },
        {
          "name": "QSCAT",
          "label": "Category of Question",
          "type": "Char",
          "length": 5
        },
        {
          "name": "QSORRES",
          "label": "Finding in Original Units",
          "type": "Char",
          "length": 23
        },
        {
          "name": "QSSTRESC",
          "label": "Character Result/Finding in Std Format",
          "type": "Char",
          "length": 20
        },
        {
          "name": "QSSTRESN",
          "label": "Numeric Finding in Standard Units",
          "type": "Num",
          "length": 8
        },
        {
          "name": "QSLOBXFL",
          "label": "Last Observation Before Exposure Flag",
          "type": "Char",
          "length": 1
        },
        {
          "name": "VISITNUM",
          "label": "Visit Number",
          "type": "Num",
          "length": 8
        },
        {
          "name": "VISIT",
          "label": "Visit Name",
          "type": "Char",
          "length": 200
        },
        {
          "name": "QSDTC",
          "label": "Date/Time of Finding",
          "type": "Char",
          "length": 10
        },
        {
          "name": "QSDY",
          "label": "Study Day of Finding",
          "type": "Num",
          "length": 8
        }
      ],
      "records": {
        "STUDYID": [
          "CDISC01"
        ],
        "DOMAIN": [
          "QS"
        ],
        "USUBJID": [
          "CDISC01.100008"
        ],
        "QSSEQ": [
          1
        ],
        "QSTESTCD": [
          "CGI0201"
        ],
        "QSTEST": [
          "CGI02-Severity"
        ],
        "QSCAT": [
          "CGI"
        ],
        "QSORRES": [
          "Moderate"
        ],
        "QSSTRESC": [
          "4"
        ],
        "QSSTRESN": [
          4
        ],
        "QSLOBXFL": [
          "Y"
        ],
        "VISITNUM": [
          1
        ],
        "VISIT": [
          "WEEK 1"
        ],
        "QSDTC": [
          "2003-04-15"
        ],
        "QSDY": [
          1
        ]
      }
    },
    {
      "filename": "qspg.xpt",
      "label": "Patient Global Impressions",
      "domain": "QS",
      "variables": [
        {
          "name": "STUDYID",
          "label": "Study Identifier",
          "type": "Char",
          "length": 12
        },
        {
          "name": "DOMAIN",
          "label": "Domain Abbreviation",
          "type": "Char",
          "length": 4
        },
        {
          "name": "USUBJID",
          "label": "Unique Subject Identifier",
          "type": "Char",
          "length": 8
        },
        {
          "name": "QSSEQ",
          "label": "Sequence Number",
          "type": "Num",
          "length": 8
        },
        {
          "name": "QSTESTCD",
          "label": "Question Short Name",
          "type": "Char",
          "length": 7
        },
        {
          "name": "QSTEST",
          "label": "Question Name",
          "type": "Char",
          "length": 40
        },
        {
          "name": "QSCAT",
          "label": "Category of Question",
          "type": "Char",
          "length": 5
        },
        {
          "name": "QSORRES",
          "label": "Finding in Original Units",
          "type": "Char",
          "length": 23
        },
        {
          "name": "QSSTRESC",
          "label": "Character Result/Finding in Std Format",
          "type": "Char",
          "length": 20
        },
        {
          "name": "QSSTRESN",
          "label": "Numeric Finding in Standard Units",
          "type": "Num",
          "length": 8
        },
        {
          "name": "QSLOBXFL",
          "label": "Last Observation Before Exposure Flag",
          "type": "Char",
          "length": 1
        },
        {
          "name": "VISITNUM",
          "label": "Visit Number",
          "type": "Num",
          "length": 8
        },
        {
          "name": "VISIT",
          "label": "Visit Name",
          "type": "Char",
          "length": 200
        },
        {
          "name": "QSDTC",
          "label": "Date/Time of Finding",
          "type": "Char",
          "length": 10
        },
        {
          "name": "QSDY",
          "label": "Study Day of Finding",
          "type": "Num",
          "length": 8
        }
      ],
      "records": {
        "STUDYID": [
          "CDISC01"
        ],
        "DOMAIN": [
          "QS"
        ],
        "USUBJID": [
          "CDISC01.100008"
        ],
        "QSSEQ": [
          1
        ],
        "QSTESTCD": [
          "PGI0201"
        ],
        "QSTEST": [
          "PGI02-Severity"
        ],
        "QSCAT": [
          "CGI"
        ],
        "QSORRES": [
          "Moderate"
        ],
        "QSSTRESC": [
          "4"
        ],
        "QSSTRESN": [
          4
        ],
        "QSLOBXFL": [
          "Y"
        ],
        "VISITNUM": [
          1
        ],
        "VISIT": [
          "WEEK 1"
        ],
        "QSDTC": [
          "2003-04-15"
        ],
        "QSDY": [
          1
        ]
      }
    }
  ],
  "codelists": []
}