STUDYID,DOMAIN,USUBJID,IESEQ,IETESTCD,IETEST,IECAT,IEORRES,IESTRESC,EPOCH,IEDTC,IEDY
CDISCPILOT01,IE,CDISC015,1,EXCL04,Is pregnant or nursing.,EXCLUSION,Y,N,SCREENING,2014-03-17,
CDISCPILOT01,IE,CDISC016,1,EXCL04,Is pregnant or nursing.,EXCLUSION,Y,N,SCREENING,2014-03-18,
CDISCPILOT01,IE,CDISC017,1,INCL01,Is pregnant or nursing.,INCLUSION,NOT DONE,N,SCREENING,2014-03-19,
