dataset,variable,label,type,length
adsl.xpt,STUDYID,Study Identifier,Char,50
adsl.xpt,USUBJID,Unique Subject Identifier,Char,50
adsl.xpt,FASFL,Full Analysis Set Population Flag,Char,50
adsl.xpt,SAFFL,Safety Population Flag,Char,50
adsl.xpt,ITTFL,Intent-To-Treat Population Flag,Char,50
adsl.xpt,PPROTFL,Per-Protocol Population Flag,Char,50
adsl.xpt,COMPLFL,Completers Population Flag,Char,50
adsl.xpt,RANDFL,Randomized Population Flag,Char,50
adsl.xpt,ENRLFL,Enrolled Population Flag,Char,50
adsl.xpt,ENRLFN,Enrolled Population Flag (N),Num,50
adsl.xpt,AGE,Age,Num,8
adsl.xpt,AGEU,Age Units,Char,50
adsl.xpt,SEX,Sex,Char,50
adsl.xpt,TRT01A,Actual Treatment for Period 01 ,Char,50
adsl.xpt,TRT01AN,Actual Treatment for Period 01 (N),Num,8
adsl.xpt,TRTSEQP,Planned Sequence of Treatments,Char,50
adsl.xpt,TRTSEQA,Actual Sequence of Treatments,Char,50
adsl.xpt,TRTSEQAN,Actual Sequence of Treatments (N),Num,8
adsl.xpt,TR01AG1,Actual Pooled Treatment 1 for Period 01,Char,50
adsl.xpt,TR01AG1N,Actual Pooled Trt 1 for Period 01 (N),Num,8
advs.xpt,SUBJID,Subject Identifier for the Study,Char,50
advs.xpt,AVISIT,Analysis Visit,Char,50
advs.xpt,ADY,Analysis Relative Day,Num,8
advs.xpt,PARAM,Parameter,Char,50
advs.xpt,BASE,Baseline Value,Num,8
advs.xpt,CHG,Change from Baseline,Num,8
advs.xpt,AVAL,Analysis Value,Num,8
advs.xpt,DTYPE,Derivation Type,Char,50
advs.xpt,ANL01FL,Analysis Flag 01,Char,50
advs.xpt,ANL01FN,Analysis Flag 01,Num,8
advs.xpt,CRIT1,Analysis Criterion y,Char,50
advs.xpt,CRIT1FL,Criterion y Evaluation Result Flag,Char,50
advs.xpt,ADT,Analysis Date,Num,8
