{
    "rule": {
      "_links": {},
      "core_id": "CDISC.SDTMIG.CG0340",
      "reference": [
        {
          "Origin": "SDTM and SDTMIG Conformance Rules",
          "Rule Identifier": {
            "Id": "CG0340",
            "Version": "1"
          },
          "Version": "2.0"
        }
      ],
      "sensitivity": "Record",
      "severity": "error",
      "description": "Raise an error when --SCAT = --BODSYS.",
      "authority": {
        "Organization": "CDISC"
      },
      "standards": [
        {
          "Name": "SDTMIG",
          "Version": "3.4"
        }
      ],
      "classes": {
        "Include": [
          "Events"
        ]
      },
      "domains": {
        "Include": [
          "All"
        ]
      },
      "rule_type": "Uniqueness",
      "conditions": {
        "all": [
          {
            "name": "get_dataset",
            "operator": "equal_to_case_insensitive",
            "value": {
              "target": "--SCAT",
              "comparator": "--BODSYS"
            }
          }
        ]
      },
      "output_variables": [
        "--TERM",
        "--SCAT",
        "--BODSYS"
      ],
      "actions": [
        {
          "name": "generate_dataset_error_objects",
          "params": {
            "message": "--SCAT is equal to --BODSYS."
          }
        }
      ]
    },
    "datasets": [
      {
        "filename": "mh.xpt",
        "label": "Medical History",
        "domain": "MH",
        "variables": [
          {
            "name": "STUDYID",
            "label": "Study Identifier",
            "type": "Char",
            "length": 12
          },
          {
            "name": "DOMAIN",
            "label": "Domain Abbreviation",
            "type": "Char",
            "length": 2
          },
          {
            "name": "USUBJID",
            "label": "Unique Subject Identifier",
            "type": "Char",
            "length": 8
          },
          {
            "name": "MHSEQ",
            "label": "Sequence Number",
            "type": "Num",
            "length": 8
          },
          {
            "name": "MHTERM",
            "label": "Reported Term for the Medical History",
            "type": "Char",
            "length": 19
          },
          {
            "name": "MHEVDTYP",
            "label": "Medical History Event Date Type",
            "type": "Char",
            "length": 13
          },
          {
            "name": "MHSCAT",
            "label": "Subcategory for Medical History",
            "type": "Char",
            "length": 200
          },
          {
            "name": "MHBODSYS",
            "label": "Body System or Organ Class",
            "type": "Char",
            "length": 201
          },
          {
            "name": "MHSTDTC",
            "label": "Start Date/Time of Medical History Event",
            "type": "Char",
            "length": 10
          },
          {
            "name": "MHSTDY",
            "label": "Study Day of Start of Observation",
            "type": "Num",
            "length": 8
          }
        ],
        "records": {
          "STUDYID": [
            "CDISCPILOT01",
            "CDISCPILOT01",
            "CDISCPILOT01",
            "CDISCPILOT01",
            "CDISCPILOT01",
            "CDISCPILOT01",
            "CDISCPILOT01",
            "CDISCPILOT01",
            "CDISCPILOT01",
            "CDISCPILOT01",
            "CDISCPILOT01",
            "CDISCPILOT01",
            "CDISCPILOT01",
            "CDISCPILOT01",
            "CDISCPILOT01",
            "CDISCPILOT01",
            "CDISCPILOT01"
          ],
          "DOMAIN": [
            "MH",
            "MH",
            "MH",
            "MH",
            "MH",
            "MH",
            "MH",
            "MH",
            "MH",
            "MH",
            "MH",
            "MH",
            "MH",
            "MH",
            "MH",
            "MH",
            "MH"
          ],
          "USUBJID": [
            "CDISC001",
            "CDISC002",
            "CDISC003",
            "CDISC004",
            "CDISC005",
            "CDISC006",
            "CDISC007",
            "CDISC008",
            "CDISC009",
            "CDISC010",
            "CDISC011",
            "CDISC012",
            "CDISC013",
            "CDISC014",
            "CDISC016",
            "CDISC017",
            "CDISC018"
          ],
          "MHSEQ": [
            1,
            1,
            1,
            1,
            1,
            1,
            1,
            1,
            1,
            1,
            1,
            1,
            1,
            1,
            1,
            1,
            1
          ],
          "MHTERM": [
            "ALZHEIMER'S DISEASE",
            "ALZHEIMER'S DISEASE",
            "ALZHEIMER'S DISEASE",
            "ALZHEIMER'S DISEASE",
            "ALZHEIMER'S DISEASE",
            "ALZHEIMER'S DISEASE",
            "ALZHEIMER'S DISEASE",
            "ALZHEIMER'S DISEASE",
            "ALZHEIMER'S DISEASE",
            "ALZHEIMER'S DISEASE",
            "ALZHEIMER'S DISEASE",
            "ALZHEIMER'S DISEASE",
            "ALZHEIMER'S DISEASE",
            "ALZHEIMER'S DISEASE",
            "ALZHEIMER'S DISEASE",
            "ALZHEIMER'S DISEASE",
            "ALZHEIMER'S DISEASE"
          ],
          "MHEVDTYP": [
            "SYMPTOM ONSET",
            "SYMPTOM ONSET",
            "SYMPTOM ONSET",
            "SYMPTOM ONSET",
            "SYMPTOM ONSET",
            "SYMPTOM ONSET",
            "SYMPTOM ONSET",
            "SYMPTOM ONSET",
            "SYMPTOM ONSET",
            "SYMPTOM ONSET",
            "SYMPTOM ONSET",
            "SYMPTOM ONSET",
            "SYMPTOM ONSET",
            "SYMPTOM ONSET",
            "SYMPTOM ONSET",
            "SYMPTOM ONSET",
            "SYMPTOM ONSET"
          ],
          "MHSCAT": [
            "",
            "",
            "GENERAL MEDICAL HISTORY",
            "FAMILY HISTORY",
            "",
            "",
            "",
            "FAMILY HISTORY",
            "",
            "",
            "FAMILY HISTORY",
            "",
            "GENERAL MEDICAL HISTORY",
            "",
            "",
            "",
            "general medical history"
          ],
          "MHBODSYS": [
            "Neurodegenerative Diseases",
            "Neurodegenerative Diseases",
            "Neurodegenerative Diseases",
            "Neurodegenerative Diseases",
            "Neurodegenerative Diseases",
            "Neurodegenerative Diseases",
            "Neurodegenerative Diseases",
            "Neurodegenerative Diseases",
            "Neurodegenerative Diseases",
            "Neurodegenerative Diseases",
            "Neurodegenerative Diseases",
            "Neurodegenerative Diseases",
            "Neurodegenerative Diseases",
            "Neurodegenerative Diseases",
            "Neurodegenerative Diseases",
            "Neurodegenerative Diseases",
            "Neurodegenerative Diseases"
          ],
          "MHSTDTC": [
            "2004-05-28",
            "2010-03-19",
            "2007-02-09",
            "2010-11-05",
            "2006-08-20",
            "2008-06-17",
            "2008-05-21",
            "2012-11-11",
            "2008-09-02",
            "2012-09-08",
            "2002-12-01",
            "2009-03-16",
            "2011-07-19",
            "2011-07-25",
            "2011-04-29",
            "2008-08-20",
            "2010-05-03"
          ],
          "MHSTDY": [
            -3108,
            -972,
            -2393,
            -1068,
            -2360,
            -1736,
            -1690,
            -546,
            -1511,
            -378,
            -3659,
            -1632,
            -734,
            -618,
            -705,
            -1858,
            -959
          ]
        }
      }
    ]
  }