STUDYID,DOMAIN,USUBJID,LBSEQ,LBSPID,LBTESTCD,LBTEST,LBCAT,LBORRES,LBORRESU,LBORNRLO,LBORNRHI,LBSTRESC,LBSTRESN,LBSTRESU,LBSTNRLO,LBSTNRHI,LBNRIND,LBLOINC,LBSPEC,LBBLFL,EPOCH,VISITNUM,VISIT,LBDTC,LBDY
CDISC-PILOT-01,LB,S001,1,46,ALB,Albumin,BIOCHEMISTRY,4.46,g/dL,,,4.46,4.46,g/dL,,,,1751-7,SERUM,,SCREENING,100,VISIT 1 (WEEK -2),2005-09-28 00:00:00,-15
CDISC-PILOT-01,LB,S001,2,37,ALB,Albumin,BIOCHEMISTRY,4.31,g/dL,,,4.31,4.31,g/dL,,,,1751-7,SERUM,,TREATMENT,200,VISIT 2 (WEEK 0),2005-10-13 00:00:00,1
CDISC-PILOT-01,LB,S001,3,21,ALB,Albumin,BIOCHEMISTRY,3.62,g/dL,,,3.62,3.62,g/dL,,,,1751-7,SERUM,,TREATMENT,2200,VISIT 22 (WEEK 20),2006-03-02 00:00:00,141
CDISC-PILOT-01,LB,S001,4,11,ALB,Albumin,BIOCHEMISTRY,4.17,g/dL,,,4.17,4.17,g/dL,,,,1751-7,SERUM,,FOLLOW-UP,2900,END OF TRIAL,2006-05-13 00:00:00,213
CDISC-PILOT-01,LB,S001,5,43,ALT,Alanine Aminotransferase,BIOCHEMISTRY,14.99,U/L,,,14.99,14.99,U/L,,,,1742-6,SERUM,,SCREENING,100,VISIT 1 (WEEK -2),2005-09-28 00:00:00,-15
CDISC-PILOT-01,LB,S001,6,34,ALT,Alanine Aminotransferase,BIOCHEMISTRY,38.09,U/L,,,38.09,38.09,U/L,,,,1742-6,SERUM,,TREATMENT,200,VISIT 2 (WEEK 0),2005-10-13 00:00:00,1
CDISC-PILOT-01,LB,S001,7,18,ALT,Alanine Aminotransferase,BIOCHEMISTRY,12.98,U/L,,,12.98,12.98,U/L,,,,1742-6,SERUM,,TREATMENT,2200,VISIT 22 (WEEK 20),2006-03-02 00:00:00,141
CDISC-PILOT-01,LB,S001,8,8,ALT,Alanine Aminotransferase,BIOCHEMISTRY,15.6,U/L,,,15.6,15.6,U/L,,,,1742-6,SERUM,,FOLLOW-UP,2900,END OF TRIAL,2006-05-13 00:00:00,213
CDISC-PILOT-01,LB,S001,9,39,CHOL,Cholesterol,LIPIDS,5.25,mmol/L,,,5.25,5.25,mmol/L,,,,2093-3,SERUM,,SCREENING,100,VISIT 1 (WEEK -2),2005-09-28 00:00:00,-15
