STUDYID,RDOMAIN,USUBJID,IDVAR,IDVARVAL,QNAM,QLABEL,QVAL,QORIG,QEVAL
CDISC-PILOT-01,LB,S001,LBSEQ,1,LBTEST,Lab Test or Examination Name,Y,CRF,
CDISC-PILOT-01,LB,S001,LBSEQ,1,LBCAT,Category for Lab Test,Y,CRF,
