STUDYID,DOMAIN,USUBJID,DSSEQ,DSLNKID,DSTERM,DSDECOD,DSCAT,DSSCAT,DSBDSYCD,DSSOCCD,EPOCH,DSSTDTC,DSSTDY
CDISCPILOT01,DS,CDISC002,1,,INFORMED CONSENT OBTAINED,INFORMED CONSENT OBTAINED,INFORMED CONSENT OBTAINED,,1,1,SCREENING,2012-10-30,-16
CDISCPILOT01,DS,CDISC002,2,8,DYSPNOEA,ADVERSE EVENT,ADVERSE EVENT,STUDY TREATMENT,2,2,TREATMENT,2013-01-12,59
CDISCPILOT01,DS,CDISC002,3,9,SUDDEN DEATH,DEATH,DEATH,STUDY PARTICIPATION,3,3,TREATMENT,2013-01-14,61
CDISCPILOT01,DS,CDISC006,1,,INFORMED CONSENT OBTAINED,INFORMED CONSENT OBTAINED,INFORMED CONSENT OBTAINED,,4,4,SCREENING,2013-02-25,-22
CDISCPILOT01,DS,CDISC006,2,,WITHDRAWAL BY SUBJECT,WITHDRAWAL BY SUBJECT,WITHDRAWAL BY SUBJECT,STUDY PARTICIPATION,5,5,TREATMENT,2013-04-30,43
CDISCPILOT01,DS,CDISC006,3,,WITHDRAWAL BY SUBJECT,WITHDRAWAL BY SUBJECT,WITHDRAWAL BY SUBJECT,STUDY TREATMENT,6,6,TREATMENT,2013-04-30,43
CDISCPILOT01,DS,CDISC010,1,,INFORMED CONSENT OBTAINED,PROTOCOL MILESTONE,PROTOCOL MILESTONE,,7,7,SCREENING,2013-09-08,-13
CDISCPILOT01,DS,CDISC010,2,,WITHDRAWAL BY SUBJECT,WITHDRAWAL BY SUBJECT,WITHDRAWAL BY SUBJECT,STUDY TREATMENT,8,8,TREATMENT,2013-09-21,1
CDISCPILOT01,DS,CDISC010,3,,WITHDRAWAL BY SUBJECT,DISPOSITION EVENT,Disposition Event,STUDY PARTICIPATION,9,9,TREATMENT,2013-09-26,6
CDISCPILOT01,DS,CDISC013,1,,INFORMED CONSENT OBTAINED,INFORMED CONSENT OBTAINED,INFORMED CONSENT OBTAINED,,10,10,SCREENING,2013-07-09,-13
CDISCPILOT01,DS,CDISC013,2,1,MYOCARDIAL INFARCTION,Death,DEATH,STUDY TREATMENT,11,11,TREATMENT,2013-08-03,13
CDISCPILOT01,DS,CDISC013,3,1,MYOCARDIAL INFARCTION,DISPOSITION EVENT,DISPOSITION EVENT,STUDY PARTICIPATION,12,12,TREATMENT,2013-08-03,13
,,,,,,,,,13,14,,,
