dataset,variable,label,type,length
adpc,USUBJID,Unique Subject Identifier,Char,50
adpc,EXSTDTC,"Start Date/Time of
Treatment",Char,50
adpc,PCDTC,"Date/Time of
Specimen Collection",Char,50
adpc,ADTM,Analysis Datetime,Num,8
adpc,VISITNUM,Visit Number,Num,8
adpc,VISIT,Visit Name,Char,50
adpc,AVISIT,Analysis Visit,Char,50
adpc,AVISITN,Analysis Visit (N),Num,8
adpc,PCTPT,"Planned Time Point
Name",Char,50
adpc,PCTPTNUM,"Planned Time Point
Number",Char,50
adpc,ATPT,Analysis Timepoint,Char,50
adpc,ATPTN,Analysis Timepoint (N),Num,8
adpc,PCSTRESC,"Character
Result/Finding in Std
Format",Char,50
adpc,PCSTRESN,"Numeric
Result/Finding in
Standard Units",Char,50
adpc,PCSTRESU,Standard Units,Char,50
adpc,AVAL,Analysis Value,Num,8
adpc,ANCHOR1,Anchor 1 Reference,Char,50
adpc,ARELTM,Analysis Relative Time ,Char,50
adpc,ANCHOR2,Anchor 2 Reference,Char,50
adpc,ARELTM2,Analysis Relative Time 2,Char,50
adpc,ARELTMU,Analysis Relative Time Unit ,Char,50
adpc,ANL01FL,Analysis Flag 01,Char,50
adpc,ANL02FL,Analysis Flag 02,Char,50
adsl,STUDYID,Study Identifier,Char,50
adsl,USUBJID,Unique Subject Identifier,Char,50
adsl,FASFL,Full Analysis Set Population Flag,Char,50
adsl,SAFFL,Safety Population Flag,Char,50
adsl,ITTFL,Intent-To-Treat Population Flag,Char,50
adsl,PPROTFL,Per-Protocol Population Flag,Char,50
adsl,COMPLFL,Completers Population Flag,Char,50
adsl,RANDFL,Randomized Population Flag,Char,50
adsl,ENRLFL,Enrolled Population Flag,Char,50
adsl,ARM,Description of Planned Arm,Char,50
adsl,ACTARM,Description of Actual Arm,Char,50
