{3 items
"datasets":[2 items
0:{5 items
"filename":"lb.xpt"
"label":"Laboratory Test Results"
"domain":"LB"
"variables":[33 items
0:{4 items
"name":"STUDYID"
"label":"Study Identifier"
"type":"Char"
"length":12
}
1:{4 items
"name":"DOMAIN"
"label":"Domain Abbreviation"
"type":"Char"
"length":2
}
2:{4 items
"name":"USUBJID"
"label":"Unique Subject Identifier"
"type":"Char"
"length":8
}
3:{4 items
"name":"LBSEQ"
"label":"Sequence Number"
"type":"Num"
"length":8
}
4:{4 items
"name":"LBTESTCD"
"label":"Lab Test or Examination Short Name"
"type":"Char"
"length":7
}
5:{4 items
"name":"LBTEST"
"label":"Lab Test or Examination Name"
"type":"Char"
"length":39
}
6:{4 items
"name":"LBCAT"
"label":"Category for Lab Test"
"type":"Char"
"length":10
}
7:{4 items
"name":"LBORRES"
"label":"Result or Finding in Original Units"
"type":"Char"
"length":6
}
8:{4 items
"name":"LBORRESU"
"label":"Original Units"
"type":"Char"
"length":7
}
9:{4 items
"name":"LBORNRLO"
"label":"Reference Range Lower Limit in Orig Unit"
"type":"Char"
"length":200
}
10:{4 items
"name":"LBORNRHI"
"label":"Reference Range Upper Limit in Orig Unit"
"type":"Char"
"length":200
}
11:{4 items
"name":"LBSTRESC"
"label":"Character Result/Finding in Std Format"
"type":"Char"
"length":8
}
12:{4 items
"name":"LBSTRESN"
"label":"Numeric Result/Finding in Standard Units"
"type":"Num"
"length":8
}
13:{4 items
"name":"LBSTRESU"
"label":"Standard Units"
"type":"Char"
"length":7
}
14:{4 items
"name":"LBSTNRLO"
"label":"Reference Range Lower Limit-Std Units"
"type":"Num"
"length":8
}
15:{4 items
"name":"LBSTNRHI"
"label":"Reference Range Upper Limit-Std Units"
"type":"Num"
"length":8
}
16:{4 items
"name":"LBNRIND"
"label":"Reference Range Indicator"
"type":"Char"
"length":8
}
17:{4 items
"name":"LBSTAT"
"label":"Completion Status"
"type":"Char"
"length":8
}
18:{4 items
"name":"LBREASND"
"label":"Reason Not Done"
"type":"Char"
"length":50
}
19:{4 items
"name":"LBLOBXFL"
"label":"Last Observation Before Exposure Flag"
"type":"Char"
"length":1
}
20:{4 items
"name":"VISITNUM"
"label":"Visit Number"
"type":"Num"
"length":8
}
21:{4 items
"name":"VISIT"
"label":"Visit Name"
"type":"Char"
"length":200
}
22:{4 items
"name":"EPOCH"
"label":"Epoch"
"type":"Char"
"length":9
}
23:{4 items
"name":"LBDTC"
"label":"Date/Time of Specimen Collection"
"type":"Char"
"length":19
}
24:{4 items
"name":"LBDY"
"label":"Study Day of Specimen Collection"
"type":"Num"
"length":8
}
25:{4 items
"name":"LBTOX"
"label":"Toxicity"
"type":"Char"
"length":50
}
26:{4 items
"name":"LBTOXGR"
"label":"Standard Toxicity Grade"
"type":"Char"
"length":50
}
27:{4 items
"name":"LBTPT"
"label":"Planned Time Point Name "
"type":"Char"
"length":50
}
28:{4 items
"name":"LBTPTNUM"
"label":"Planned Time Point Number"
"type":"Num"
"length":8
}
29:{4 items
"name":"LBSTINT"
"label":"Planned Start of Assessment Interval "
"type":"Char"
"length":20
}
30:{4 items
"name":"LBENINT"
"label":"Planned End of Assessment Interval "
"type":"Char"
"length":20
}
31:{4 items
"name":"LBTPTREF"
"label":"Time Point Reference"
"type":"Char"
"length":100
}
32:{4 items
"name":"LBELTM"
"label":"Planned Elapsed Time from Time Point Ref"
"type":"char"
"length":30
}
]
"records":{33 items
"STUDYID":[4 items
0:"CDISCPILOT01"
1:"CDISCPILOT01"
2:"CDISCPILOT01"
3:"CDISCPILOT01"
]
"DOMAIN":[4 items
0:"LB"
1:"LB"
2:"LB"
3:"LB"
]
"USUBJID":[4 items
0:"CDISC001"
1:"CDISC001"
2:"CDISC002"
3:"CDISC002"
]
"LBSEQ":[4 items
0:1
1:2
2:2
3:2
]
"LBTESTCD":[4 items
0:"ALB"
1:"ALP"
2:"ALP"
3:"ALP"
]
"LBTEST":[4 items
0:"Albumin"
1:"Alkaline Phosphatase"
2:"Alkaline Phosphatase"
3:"Alkaline Phosphatase"
]
"LBCAT":[4 items
0:"CHEMISTRY"
1:"CHEMISTRY"
2:"CHEMISTRY"
3:"CHEMISTRY"
]
"LBORRES":[4 items
0:"3.9"
1:"93"
2:"93"
3:""
]
"LBORRESU":[4 items
0:"g/dL"
1:"U/L"
2:"U/L"
3:""
]
"LBORNRLO":[4 items
0:"3.5"
1:"35"
2:"35"
3:""
]
"LBORNRHI":[4 items
0:"4.6"
1:"115"
2:"115"
3:""
]
"LBSTRESC":[4 items
0:"39"
1:"93"
2:"93"
3:""
]
"LBSTRESN":[4 items
0:39
1:93
2:93
3:NULL
]
"LBSTRESU":[4 items
0:"g/L"
1:"U/L"
2:"U/L"
3:""
]
"LBSTNRLO":[4 items
0:35
1:35
2:35
3:NULL
]
"LBSTNRHI":[4 items
0:46
1:115
2:115
3:NULL
]
"LBNRIND":[4 items
0:"NORMAL"
1:"NORMAL"
2:"NORMAL"
3:""
]
"LBSTAT":[4 items
0:""
1:""
2:""
3:"NOT DONE"
]
"LBREASND":[4 items
0:""
1:""
2:""
3:"sample broken"
]
"LBLOBXFL":[4 items
0:"Y"
1:"Y"
2:"Y"
3:""
]
"VISITNUM":[4 items
0:1
1:1
2:1
3:1
]
"VISIT":[4 items
0:"SCREENING 1"
1:"SCREENING 1"
2:"SCREENING 1"
3:"SCREENING 1"
]
"EPOCH":[4 items
0:"SCREENING"
1:"SCREENING"
2:"SCREENING"
3:"SCREENING"
]
"LBDTC":[4 items
0:"2012-11-23T11:20"
1:"2012-11-23T11:20"
2:"2012-11-23T11:20"
3:"2012-11-23T17:21"
]
"LBDY":[4 items
0:-7
1:-7
2:-7
3:-7
]
"LBTOX":[4 items
0:""
1:""
2:""
3:""
]
"LBTOXGR":[4 items
0:"3"
1:"2"
2:"Grade II"
3:""
]
"LBTPT":[4 items
0:"TP1"
1:"TP2"
2:"TP3"
3:"TP1"
]
"LBTPTNUM":[4 items
0:1
1:2
2:3
3:1
]
"LBSTINT":[4 items
0:"PT05M"
1:"PT05M"
2:"PT05M"
3:"PT05M"
]
"LBENINT":[4 items
0:"PT08M"
1:"PT08M"
2:"PT08M"
3:"PT08M"
]
"LBTPTREF":[4 items
0:"Day 1 dose"
1:"Day 1 dose"
2:"Day 1 dose"
3:"Day 1 dose"
]
"LBELTM":[4 items
0:"PT05M"
1:"PT05M"
2:"PT05M"
3:"PT05M"
]
}
}
1:{5 items
"filename":"pp.xpt"
"label":"Pharmacokinetics Parameters "
"domain":"PP"
"variables":[8 items
0:{4 items
"name":"STUDYID"
"label":"Study Identifier"
"type":"Char"
"length":12
}
1:{4 items
"name":"DOMAIN"
"label":"Domain Abbreviation"
"type":"Char"
"length":2
}
2:{4 items
"name":"USUBJID"
"label":"Unique Subject Identifier"
"type":"Char"
"length":8
}
3:{4 items
"name":"PPSEQ"
"label":"Sequence Number"
"type":"Num"
"length":8
}
4:{4 items
"name":"PPTESTCD"
"label":"Parameter Short Name "
"type":"Char"
"length":7
}
5:{4 items
"name":"PPTEST"
"label":"Parameter Name "
"type":"Char"
"length":39
}
6:{4 items
"name":"PPSPEC"
"label":"Specimen Material Type "
"type":"Char"
"length":200
}
7:{4 items
"name":"PPTPTREF"
"label":"Time Point Reference"
"type":"Char"
"length":20
}
]
"records":{8 items
"STUDYID":[4 items
0:"CDISCPILOT01"
1:"CDISCPILOT01"
2:"CDISCPILOT01"
3:"CDISCPILOT01"
]
"DOMAIN":[4 items
0:"PP"
1:"PP"
2:"PP"
3:"PP"
]
"USUBJID":[4 items
0:"CDISC001"
1:"CDISC001"
2:"CDISC001"
3:"CDISC001"
]
"PPSEQ":[4 items
0:1
1:2
2:3
3:4
]
"PPTESTCD":[4 items
0:"TMAX"
1:""
2:""
3:""
]
"PPTEST":[4 items
0:"Time of CMAX "
1:""
2:""
3:""
]
"PPSPEC":[4 items
0:"ABDOMINAL WALL"
1:"ADIPOSE TISSUE, BROWN"
2:"ABDOMINAL WALL;ADIPOSE TISSUE, BROWN"
3:"ABDOMINAL WALL;ADIPOSE TISSUE, BROWN;AIR SAC"
]
"PPTPTREF":[4 items
0:"Day 1 dose"
1:"Day 1 dose"
2:"Day 1 dose"
3:"Day 1 dose"
]
}
}
]
"standard":{2 items
"product":"sendig"
"version":"3-1-1"
}
"codelists":[]0 items
}