{
    "rule": {
        "Authorities": [
            {
                "Organization": "CDISC",
                "Standards": [
                    {
                        "Name": "SDTMIG",
                        "References": [
                            {
                                "Citations": [
                                    {
                                        "Document": "IG v3.4",
                                        "Item": "6",
                                        "Section": "4.1.7",
                                        "Cited_Guidance": "For domains with two-letter domain codes (i.e., other than SUPPxx and RELREC), split dataset names can be up to four characters in length. For example, if splitting by --CAT, then dataset names would be the domain name plus up to two additional characters (e.g., QS36 for SF-36). If splitting Findings About by parent domain, then the dataset name would be the domain code, \"FA\", plus the two-character domain code for parent domain code (e.g., \"FACM\"). The four-character dataset-name limitation allows the use of a Supplemental Qualifier dataset associated with the split dataset. "
                                    }
                                ],
                                "Origin": "SDTM and SDTMIG Conformance Rules",
                                "Version": "2.0",
                                "Rule_Identifier": {
                                    "Id": "CG0332",
                                    "Version": "1"
                                }
                            }
                        ],
                        "Version": "3.4"
                    },
                    {
                        "Name": "SDTMIG",
                        "References": [
                            {
                                "Citations": [
                                    {
                                        "Document": "IG v3.2",
                                        "Item": "6",
                                        "Section": "4.1.1.7",
                                        "Cited_Guidance": "Split dataset names can be up to four characters in length. For example; if splitting by --CAT; then dataset names would be the domain name plus up to two additional characters (e.g., QS36 for SF-36). If splitting Findings About by parent domain; then the dataset name would be the domain name plus the two-character domain code describing the parent domain code (e.g., FACM). The four-character dataset-name limitation allows the use of a Supplemental Qualifier dataset associated with the split dataset."
                                    }
                                ],
                                "Origin": "SDTM and SDTMIG Conformance Rules",
                                "Version": "2.0",
                                "Rule_Identifier": {
                                    "Id": "CG0332",
                                    "Version": "1"
                                }
                            }
                        ],
                        "Version": "3.2"
                    },
                    {
                        "Name": "SDTMIG",
                        "References": [
                            {
                                "Citations": [
                                    {
                                        "Document": "IG v3.3",
                                        "Item": "6",
                                        "Section": "4.1.7",
                                        "Cited_Guidance": "Split dataset names can be up to four characters in length. For example; if splitting by --CAT; then dataset names would be the domain name plus up to two additional characters (e.g., QS36 for SF-36). If splitting Findings About by parent domain; then the dataset name would be the domain name plus the two-character domain code describing the parent domain code (e.g., FACM). The four-character dataset-name limitation allows the use of a Supplemental Qualifier dataset associated with the split dataset."
                                    }
                                ],
                                "Origin": "SDTM and SDTMIG Conformance Rules",
                                "Version": "2.0",
                                "Rule_Identifier": {
                                    "Id": "CG0332",
                                    "Version": "1"
                                }
                            }
                        ],
                        "Version": "3.3"
                    }
                ]
            }
        ],
        "Check": {
            "all": [
                {
                    "name": "dataset_name",
                    "operator": "matches_regex",
                    "value": "^[a-z(?-i)]{2}[a-z0-9(?-i)]{1,2}"
                },
                {
                    "name": "dataset_name",
                    "operator": "not_prefix_matches_regex",
                    "prefix": 2,
                    "value": "(AP|FA)"
                },
                {
                    "name": "dataset_name",
                    "operator": "prefix_is_not_contained_by",
                    "prefix": 2,
                    "value": "$list_dataset_names"
                }
            ]
        },
        "Core": {
            "Id": "CDISC.SDTMIG.CG0332",
            "Status": "Draft",
            "Version": "1"
        },
        "Description": "Raise an error when split domains (i.e three/four-letter domain name) do not have a two-letter parent domain present in the study.",
        "Executability": "Fully Executable",
        "Operations": [
            {
                "id": "$list_dataset_names",
                "operator": "dataset_names"
            }
        ],
        "Outcome": {
            "Message": "Split dataset is present but the two-Letter parent domain is missing.",
            "Output_Variables": [
                "dataset_name",
                "$list_dataset_names"
            ]
        },
        "Scope": {
            "Classes": {
                "Include": [
                    "ALL"
                ]
            },
            "Domains": {
                "Exclude": [
                    "RELREC",
                    "RELSUB",
                    "SUPP"
                ]
            }
        },
        "Sensitivity": "Record",
        "Rule_Type": "Dataset Metadata Check"
    },
    "datasets": [
        {
            "filename": "mhLB.xpt",
            "label": "Medical History Lab Results",
            "domain": "MH",
            "variables": [
                {
                    "name": "STUDYID",
                    "label": "Study Identifier",
                    "type": "Char",
                    "length": 12
                },
                {
                    "name": "DOMAIN",
                    "label": "Domain Abbreviation",
                    "type": "Char",
                    "length": 2
                },
                {
                    "name": "USUBJID",
                    "label": "Unique Subject Identifier",
                    "type": "Char",
                    "length": 8
                },
                {
                    "name": "MHSEQ",
                    "label": "Sequence Number",
                    "type": "Num",
                    "length": 8
                },
                {
                    "name": "MHTERM",
                    "label": "Reported Term for the Medical History",
                    "type": "Char",
                    "length": 19
                },
                {
                    "name": "MHEVDTYP",
                    "label": "Medical History Event Date Type",
                    "type": "Char",
                    "length": 13
                },
                {
                    "name": "MHSTDTC",
                    "label": "Start Date/Time of Medical History Event",
                    "type": "Char",
                    "length": 10
                },
                {
                    "name": "MHSTDY",
                    "label": "Study Day of Start of Observation",
                    "type": "Num",
                    "length": 8
                },
                {
                    "name": "MHENDTC",
                    "label": "End Date/Time of Medical History Event",
                    "type": "Char",
                    "length": 10
                }
            ],
            "records": {
                "STUDYID": [
                    "CDISCPILOT01",
                    "CDISCPILOT01",
                    "CDISCPILOT01",
                    "CDISCPILOT01",
                    "CDISCPILOT01",
                    "CDISCPILOT01",
                    "CDISCPILOT01",
                    "CDISCPILOT01",
                    "CDISCPILOT01",
                    "CDISCPILOT01",
                    "CDISCPILOT01",
                    "CDISCPILOT01",
                    "CDISCPILOT01",
                    "CDISCPILOT01",
                    "CDISCPILOT01",
                    "CDISCPILOT01",
                    "CDISCPILOT01"
                ],
                "DOMAIN": [
                    "MH",
                    "MH",
                    "MH",
                    "MH",
                    "MH",
                    "MH",
                    "MH",
                    "MH",
                    "MH",
                    "MH",
                    "MH",
                    "MH",
                    "MH",
                    "MH",
                    "MH",
                    "MH",
                    "MH"
                ],
                "USUBJID": [
                    "CDISC001",
                    "CDISC002",
                    "CDISC003",
                    "CDISC004",
                    "CDISC005",
                    "CDISC006",
                    "CDISC007",
                    "CDISC008",
                    "CDISC009",
                    "CDISC010",
                    "CDISC011",
                    "CDISC012",
                    "CDISC013",
                    "CDISC014",
                    "CDISC016",
                    "CDISC017",
                    "CDISC018"
                ],
                "MHSEQ": [
                    1,
                    1,
                    1,
                    1,
                    1,
                    1,
                    1,
                    1,
                    1,
                    1,
                    1,
                    1,
                    1,
                    1,
                    1,
                    1,
                    1
                ],
                "MHTERM": [
                    "ALZHEIMER'S DISEASE",
                    "ALZHEIMER'S DISEASE",
                    "ALZHEIMER'S DISEASE",
                    "ALZHEIMER'S DISEASE",
                    "ALZHEIMER'S DISEASE",
                    "ALZHEIMER'S DISEASE",
                    "ALZHEIMER'S DISEASE",
                    "ALZHEIMER'S DISEASE",
                    "ALZHEIMER'S DISEASE",
                    "ALZHEIMER'S DISEASE",
                    "ALZHEIMER'S DISEASE",
                    "ALZHEIMER'S DISEASE",
                    "ALZHEIMER'S DISEASE",
                    "ALZHEIMER'S DISEASE",
                    "ALZHEIMER'S DISEASE",
                    "ALZHEIMER'S DISEASE",
                    "ALZHEIMER'S DISEASE"
                ],
                "MHEVDTYP": [
                    "SYMPTOM ONSET",
                    "SYMPTOM ONSET",
                    "SYMPTOM ONSET",
                    "SYMPTOM ONSET",
                    "SYMPTOM ONSET",
                    "SYMPTOM ONSET",
                    "SYMPTOM ONSET",
                    "SYMPTOM ONSET",
                    "SYMPTOM ONSET",
                    "SYMPTOM ONSET",
                    "SYMPTOM ONSET",
                    "SYMPTOM ONSET",
                    "SYMPTOM ONSET",
                    "SYMPTOM ONSET",
                    "SYMPTOM ONSET",
                    "SYMPTOM ONSET",
                    "SYMPTOM ONSET"
                ],
                "MHSTDTC": [
                    "2004-05-28",
                    "2010-03-19",
                    "2007-02-09",
                    "2010-11-05",
                    "2006-08-20",
                    "2008-06-17",
                    "2008-05-21",
                    "2012-11-11",
                    "2008-09-02",
                    "2012-09-08",
                    "2002-12-01",
                    "2009-03-16",
                    "2011-07-19",
                    "2011-07-25",
                    "2011-04-29",
                    "2008-08-20",
                    "2010-05-03"
                ],
                "MHSTDY": [
                    -3108,
                    -972,
                    -2393,
                    -1068,
                    -2360,
                    -1736,
                    -1690,
                    -546,
                    -1511,
                    -378,
                    -3659,
                    -1632,
                    -734,
                    -618,
                    -705,
                    -1858,
                    -959
                ],
                "MHENDTC": [
                    "",
                    "2010-03-20",
                    "2010-02-09",
                    "2013-10-08",
                    "2010-08-20",
                    "2013-03-20",
                    "2008-12-21",
                    "2013-11-11",
                    "2010-09-02",
                    "2013-09-20",
                    "2010-12-01",
                    "2010-03-16",
                    "2013-08-22",
                    "2013-04-03",
                    "2012-04-29",
                    "2010-08-20",
                    "2011-05-03"
                ]
            }
        },
        {
            "filename": "mh.xpt",
            "label": "Medical History",
            "domain": "MH",
            "variables": [
                {
                    "name": "STUDYID",
                    "label": "Study Identifier",
                    "type": "Char",
                    "length": 12
                },
                {
                    "name": "DOMAIN",
                    "label": "Domain Abbreviation",
                    "type": "Char",
                    "length": 2
                },
                {
                    "name": "USUBJID",
                    "label": "Unique Subject Identifier",
                    "type": "Char",
                    "length": 8
                },
                {
                    "name": "MHSEQ",
                    "label": "Sequence Number",
                    "type": "Num",
                    "length": 8
                },
                {
                    "name": "MHTERM",
                    "label": "Reported Term for the Medical History",
                    "type": "Char",
                    "length": 19
                },
                {
                    "name": "MHEVDTYP",
                    "label": "Medical History Event Date Type",
                    "type": "Char",
                    "length": 13
                },
                {
                    "name": "MHSTDTC",
                    "label": "Start Date/Time of Medical History Event",
                    "type": "Char",
                    "length": 10
                },
                {
                    "name": "MHSTDY",
                    "label": "Study Day of Start of Observation",
                    "type": "Num",
                    "length": 8
                },
                {
                    "name": "MHENDTC",
                    "label": "End Date/Time of Medical History Event",
                    "type": "Char",
                    "length": 10
                }
            ],
            "records": {
                "STUDYID": [
                    "CDISCPILOT01",
                    "CDISCPILOT01",
                    "CDISCPILOT01",
                    "CDISCPILOT01",
                    "CDISCPILOT01",
                    "CDISCPILOT01",
                    "CDISCPILOT01",
                    "CDISCPILOT01",
                    "CDISCPILOT01",
                    "CDISCPILOT01",
                    "CDISCPILOT01",
                    "CDISCPILOT01",
                    "CDISCPILOT01",
                    "CDISCPILOT01",
                    "CDISCPILOT01",
                    "CDISCPILOT01",
                    "CDISCPILOT01"
                ],
                "DOMAIN": [
                    "MH",
                    "MH",
                    "MH",
                    "MH",
                    "MH",
                    "MH",
                    "MH",
                    "MH",
                    "MH",
                    "MH",
                    "MH",
                    "MH",
                    "MH",
                    "MH",
                    "MH",
                    "MH",
                    "MH"
                ],
                "USUBJID": [
                    "CDISC001",
                    "CDISC002",
                    "CDISC003",
                    "CDISC004",
                    "CDISC005",
                    "CDISC006",
                    "CDISC007",
                    "CDISC008",
                    "CDISC009",
                    "CDISC010",
                    "CDISC011",
                    "CDISC012",
                    "CDISC013",
                    "CDISC014",
                    "CDISC016",
                    "CDISC017",
                    "CDISC018"
                ],
                "MHSEQ": [
                    1,
                    1,
                    1,
                    1,
                    1,
                    1,
                    1,
                    1,
                    1,
                    1,
                    1,
                    1,
                    1,
                    1,
                    1,
                    1,
                    1
                ],
                "MHTERM": [
                    "ALZHEIMER'S DISEASE",
                    "ALZHEIMER'S DISEASE",
                    "ALZHEIMER'S DISEASE",
                    "ALZHEIMER'S DISEASE",
                    "ALZHEIMER'S DISEASE",
                    "ALZHEIMER'S DISEASE",
                    "ALZHEIMER'S DISEASE",
                    "ALZHEIMER'S DISEASE",
                    "ALZHEIMER'S DISEASE",
                    "ALZHEIMER'S DISEASE",
                    "ALZHEIMER'S DISEASE",
                    "ALZHEIMER'S DISEASE",
                    "ALZHEIMER'S DISEASE",
                    "ALZHEIMER'S DISEASE",
                    "ALZHEIMER'S DISEASE",
                    "ALZHEIMER'S DISEASE",
                    "ALZHEIMER'S DISEASE"
                ],
                "MHEVDTYP": [
                    "SYMPTOM ONSET",
                    "SYMPTOM ONSET",
                    "SYMPTOM ONSET",
                    "SYMPTOM ONSET",
                    "SYMPTOM ONSET",
                    "SYMPTOM ONSET",
                    "SYMPTOM ONSET",
                    "SYMPTOM ONSET",
                    "SYMPTOM ONSET",
                    "SYMPTOM ONSET",
                    "SYMPTOM ONSET",
                    "SYMPTOM ONSET",
                    "SYMPTOM ONSET",
                    "SYMPTOM ONSET",
                    "SYMPTOM ONSET",
                    "SYMPTOM ONSET",
                    "SYMPTOM ONSET"
                ],
                "MHSTDTC": [
                    "2004-05-28",
                    "2010-03-19",
                    "2007-02-09",
                    "2010-11-05",
                    "2006-08-20",
                    "2008-06-17",
                    "2008-05-21",
                    "2012-11-11",
                    "2008-09-02",
                    "2012-09-08",
                    "2002-12-01",
                    "2009-03-16",
                    "2011-07-19",
                    "2011-07-25",
                    "2011-04-29",
                    "2008-08-20",
                    "2010-05-03"
                ],
                "MHSTDY": [
                    -3108,
                    -972,
                    -2393,
                    -1068,
                    -2360,
                    -1736,
                    -1690,
                    -546,
                    -1511,
                    -378,
                    -3659,
                    -1632,
                    -734,
                    -618,
                    -705,
                    -1858,
                    -959
                ],
                "MHENDTC": [
                    "",
                    "2010-03-20",
                    "2010-02-09",
                    "2013-10-08",
                    "2010-08-20",
                    "2013-03-20",
                    "2008-12-21",
                    "2013-11-11",
                    "2010-09-02",
                    "2013-09-20",
                    "2010-12-01",
                    "2010-03-16",
                    "2013-08-22",
                    "2013-04-03",
                    "2012-04-29",
                    "2010-08-20",
                    "2011-05-03"
                ]
            }
        },
        {
            "filename": "dm.xpt",
            "label": "Demographics",
            "domain": "DM",
            "variables": [
                {
                    "name": "STUDYID",
                    "label": "Study Identifier",
                    "type": "Char",
                    "length": 12
                },
                {
                    "name": "DOMAIN",
                    "label": "Domain Abbreviation",
                    "type": "Char",
                    "length": 2
                },
                {
                    "name": "USUBJID",
                    "label": "Unique Subject Identifier",
                    "type": "Char",
                    "length": 8
                },
                {
                    "name": "SUBJID",
                    "label": "Subject Identifier for the Study",
                    "type": "Char",
                    "length": 4
                },
                {
                    "name": "RFSTDTC",
                    "label": "Subject Reference Start Date/Time",
                    "type": "Char",
                    "length": 10
                },
                {
                    "name": "RFENDTC",
                    "label": "Subject Reference End Date/Time",
                    "type": "Char",
                    "length": 10
                },
                {
                    "name": "RFXSTDTC",
                    "label": "Date/Time of First Study Treatment",
                    "type": "Char",
                    "length": 10
                },
                {
                    "name": "RFXENDTC",
                    "label": "Date/Time of Last Study Treatment",
                    "type": "Char",
                    "length": 10
                },
                {
                    "name": "RFICDTC",
                    "label": "Date/Time of Informed Consent",
                    "type": "Char",
                    "length": 10
                },
                {
                    "name": "RFPENDTC",
                    "label": "Date/Time of End of Participation",
                    "type": "Char",
                    "length": 10
                },
                {
                    "name": "DTHDTC",
                    "label": "Date/Time of Death",
                    "type": "Char",
                    "length": 10
                },
                {
                    "name": "DTHFL",
                    "label": "Subject Death Flag",
                    "type": "Char",
                    "length": 1
                },
                {
                    "name": "SITEID",
                    "label": "Study Site Identifier",
                    "type": "Char",
                    "length": 3
                },
                {
                    "name": "BRTHDTC",
                    "label": "Date/Time of Birth",
                    "type": "Char",
                    "length": 10
                },
                {
                    "name": "AGE",
                    "label": "Age",
                    "type": "Num",
                    "length": 8
                },
                {
                    "name": "AGEU",
                    "label": "Age Units",
                    "type": "Char",
                    "length": 5
                },
                {
                    "name": "SEX",
                    "label": "Sex",
                    "type": "Char",
                    "length": 1
                },
                {
                    "name": "RACE",
                    "label": "Race",
                    "type": "Char",
                    "length": 41
                },
                {
                    "name": "ETHNIC",
                    "label": "Ethnicity",
                    "type": "Char",
                    "length": 22
                },
                {
                    "name": "ARMCD",
                    "label": "Planned Arm Code",
                    "type": "Char",
                    "length": 8
                },
                {
                    "name": "ARM",
                    "label": "Description of Planned Arm",
                    "type": "Char",
                    "length": 28
                },
                {
                    "name": "ACTARMCD",
                    "label": "Actual Arm Code",
                    "type": "Char",
                    "length": 8
                },
                {
                    "name": "ACTARM",
                    "label": "Description of Actual Arm",
                    "type": "Char",
                    "length": 28
                },
                {
                    "name": "ARMNRS",
                    "label": "Reason Arm and/or Actual Arm is Null",
                    "type": "Char",
                    "length": 14
                },
                {
                    "name": "ACTARMUD",
                    "label": "Description of Unplanned Actual Arm",
                    "type": "Char",
                    "length": 200
                },
                {
                    "name": "COUNTRY",
                    "label": "Country",
                    "type": "Char",
                    "length": 3
                }
            ],
            "records": {
                "STUDYID": [
                    "CDISCPILOT01",
                    "CDISCPILOT01",
                    "CDISCPILOT01",
                    "CDISCPILOT01",
                    "CDISCPILOT01",
                    "CDISCPILOT01",
                    "CDISCPILOT01",
                    "CDISCPILOT01",
                    "CDISCPILOT01",
                    "CDISCPILOT01",
                    "CDISCPILOT01",
                    "CDISCPILOT01",
                    "CDISCPILOT01",
                    "CDISCPILOT01",
                    "CDISCPILOT01",
                    "CDISCPILOT01",
                    "CDISCPILOT01",
                    "CDISCPILOT01"
                ],
                "DOMAIN": [
                    "DM",
                    "DM",
                    "DM",
                    "DM",
                    "DM",
                    "DM",
                    "DM",
                    "DM",
                    "DM",
                    "DM",
                    "DM",
                    "DM",
                    "DM",
                    "DM",
                    "DM",
                    "DM",
                    "DM",
                    "DM"
                ],
                "USUBJID": [
                    "CDISC001",
                    "CDISC002",
                    "CDISC003",
                    "CDISC004",
                    "CDISC005",
                    "CDISC006",
                    "CDISC007",
                    "CDISC008",
                    "CDISC009",
                    "CDISC010",
                    "CDISC011",
                    "CDISC012",
                    "CDISC013",
                    "CDISC014",
                    "CDISC015",
                    "CDISC016",
                    "CDISC017",
                    "CDISC018"
                ],
                "SUBJID": [
                    "1115",
                    "1211",
                    "1302",
                    "1345",
                    "1383",
                    "1429",
                    "1444",
                    "1445",
                    "1087",
                    "1236",
                    "1336",
                    "1378",
                    "1083",
                    "1012",
                    "1022",
                    "1143",
                    "1250",
                    "1427"
                ],
                "RFSTDTC": [
                    "2012-11-30",
                    "2012-11-15",
                    "2013-08-29",
                    "2013-10-08",
                    "2013-02-04",
                    "2013-03-19",
                    "2013-01-05",
                    "2014-05-11",
                    "2012-10-22",
                    "2013-09-21",
                    "2012-12-07",
                    "2013-09-03",
                    "2013-07-22",
                    "2013-04-03",
                    "",
                    "2013-04-03",
                    "2013-09-21",
                    "2012-12-17"
                ],
                "RFENDTC": [
                    "2013-01-23",
                    "2013-01-14",
                    "2013-11-05",
                    "2014-03-18",
                    "2013-08-06",
                    "2013-04-30",
                    "2013-02-13",
                    "2014-11-01",
                    "2013-04-28",
                    "2013-09-26",
                    "2013-06-05",
                    "2014-01-28",
                    "2013-08-03",
                    "2013-05-02",
                    "",
                    "2013-06-01",
                    "2014-02-08",
                    "2013-02-18"
                ],
                "RFXSTDTC": [
                    "2012-11-30",
                    "2012-11-15",
                    "2013-08-29",
                    "2013-10-08",
                    "2013-02-04",
                    "2013-03-19",
                    "2013-01-05",
                    "2014-05-11",
                    "2012-10-22",
                    "2013-09-21",
                    "2012-12-07",
                    "2013-09-03",
                    "2013-07-22",
                    "2013-04-03",
                    "",
                    "2013-04-03",
                    "2013-09-21",
                    "2012-12-17"
                ],
                "RFXENDTC": [
                    "2013-01-23",
                    "2013-01-12",
                    "2013-11-05",
                    "2014-03-18",
                    "2013-08-06",
                    "2013-04-30",
                    "2013-02-12",
                    "2014-11-01",
                    "2013-04-28",
                    "2013-09-21",
                    "2013-06-05",
                    "2014-01-28",
                    "2013-08-01",
                    "2013-04-29",
                    "",
                    "2013-05-30",
                    "2014-01-31",
                    "2013-02-11"
                ],
                "RFICDTC": [
                    "2012-11-23",
                    "2012-10-30",
                    "2013-08-20",
                    "2013-10-01",
                    "2013-01-22",
                    "2013-02-25",
                    "2012-12-31",
                    "2014-05-01",
                    "2012-10-06",
                    "2013-09-08",
                    "2012-11-21",
                    "2013-08-24",
                    "2013-07-09",
                    "2013-03-20",
                    "2014-03-17",
                    "2013-03-30",
                    "2013-08-21",
                    "2012-12-13"
                ],
                "RFPENDTC": [
                    "2013-05-20",
                    "2013-01-14",
                    "2014-02-13",
                    "2014-03-18",
                    "2013-08-06",
                    "2013-04-30",
                    "2013-06-20",
                    "2014-11-01",
                    "2013-04-28",
                    "2013-09-26",
                    "2013-07-05",
                    "2014-01-28",
                    "2013-08-03",
                    "2013-09-18",
                    "2014-03-17",
                    "2013-09-22",
                    "2014-03-08",
                    "2013-06-03"
                ],
                "DTHDTC": [
                    "",
                    "2013-01-14",
                    "",
                    "",
                    "",
                    "",
                    "",
                    "2014-11-01",
                    "",
                    "",
                    "",
                    "",
                    "2013-08-03",
                    "",
                    "",
                    "",
                    "",
                    ""
                ],
                "DTHFL": [
                    "",
                    "Y",
                    "",
                    "",
                    "",
                    "",
                    "",
                    "Y",
                    "",
                    "",
                    "",
                    "",
                    "Y",
                    "",
                    "",
                    "",
                    "",
                    ""
                ],
                "SITEID": [
                    "701",
                    "701",
                    "701",
                    "701",
                    "701",
                    "701",
                    "701",
                    "704",
                    "708",
                    "708",
                    "708",
                    "708",
                    "710",
                    "711",
                    "711",
                    "711",
                    "718",
                    "718"
                ],
                "BRTHDTC": [
                    "1928",
                    "1936",
                    "1951",
                    "1950",
                    "1941",
                    "1929",
                    "1949",
                    "1939",
                    "1938",
                    "1927",
                    "1939",
                    "1946",
                    "1924",
                    "1945",
                    "1928",
                    "1936",
                    "1931",
                    "1938"
                ],
                "AGE": [
                    84,
                    76,
                    61,
                    63,
                    72,
                    84,
                    63,
                    75,
                    74,
                    86,
                    73,
                    67,
                    89,
                    67,
                    86,
                    76,
                    82,
                    74
                ],
                "AGEU": [
                    "YEARS",
                    "YEARS",
                    "YEARS",
                    "YEARS",
                    "YEARS",
                    "YEARS",
                    "YEARS",
                    "YEARS",
                    "YEARS",
                    "YEARS",
                    "YEARS",
                    "YEARS",
                    "YEARS",
                    "YEARS",
                    "YEARS",
                    "YEARS",
                    "YEARS",
                    "YEARS"
                ],
                "SEX": [
                    "M",
                    "F",
                    "M",
                    "F",
                    "F",
                    "F",
                    "M",
                    "M",
                    "F",
                    "F",
                    "M",
                    "M",
                    "F",
                    "F",
                    "F",
                    "F",
                    "F",
                    "F"
                ],
                "RACE": [
                    "WHITE",
                    "WHITE",
                    "WHITE",
                    "WHITE",
                    "WHITE",
                    "WHITE",
                    "WHITE",
                    "MULTIPLE",
                    "WHITE",
                    "WHITE",
                    "WHITE",
                    "BLACK OR AFRICAN AMERICAN",
                    "WHITE",
                    "WHITE",
                    "WHITE",
                    "WHITE",
                    "WHITE",
                    "BLACK OR AFRICAN AMERICAN"
                ],
                "ETHNIC": [
                    "NOT HISPANIC OR LATINO",
                    "NOT HISPANIC OR LATINO",
                    "NOT HISPANIC OR LATINO",
                    "NOT HISPANIC OR LATINO",
                    "NOT HISPANIC OR LATINO",
                    "NOT HISPANIC OR LATINO",
                    "HISPANIC OR LATINO",
                    "NOT HISPANIC OR LATINO",
                    "NOT HISPANIC OR LATINO",
                    "NOT HISPANIC OR LATINO",
                    "NOT HISPANIC OR LATINO",
                    "NOT HISPANIC OR LATINO",
                    "NOT HISPANIC OR LATINO",
                    "NOT HISPANIC OR LATINO",
                    "NOT HISPANIC OR LATINO",
                    "NOT HISPANIC OR LATINO",
                    "HISPANIC OR LATINO",
                    "NOT HISPANIC OR LATINO"
                ],
                "ARMCD": [
                    "ZAN_LOW",
                    "ZAN_LOW",
                    "ZAN_HIGH",
                    "PLACEBO",
                    "ZAN_HIGH",
                    "ZAN_LOW",
                    "ZAN_HIGH",
                    "PLACEBO",
                    "PLACEBO",
                    "ZAN_HIGH",
                    "ZAN_HIGH",
                    "PLACEBO",
                    "PLACEBO",
                    "ZAN_HIGH",
                    "",
                    "ZAN_LOW",
                    "ZAN_LOW",
                    "ZAN_HIGH"
                ],
                "ARM": [
                    "Zanomaline Low Dose (54 mg)",
                    "Zanomaline Low Dose (54 mg)",
                    "Zanomaline High Dose (81 mg)",
                    "Placebo",
                    "Zanomaline High Dose (81 mg)",
                    "Zanomaline Low Dose (54 mg)",
                    "Zanomaline High Dose (81 mg)",
                    "Placebo",
                    "Placebo",
                    "Zanomaline High Dose (81 mg)",
                    "Zanomaline High Dose (81 mg)",
                    "Placebo",
                    "Placebo",
                    "Zanomaline High Dose (81 mg)",
                    "",
                    "Zanomaline Low Dose (54 mg)",
                    "Zanomaline Low Dose (54 mg)",
                    "Zanomaline High Dose (81 mg)"
                ],
                "ACTARMCD": [
                    "ZAN_LOW",
                    "ZAN_LOW",
                    "ZAN_HIGH",
                    "PLACEBO",
                    "ZAN_HIGH",
                    "ZAN_LOW",
                    "ZAN_HIGH",
                    "PLACEBO",
                    "PLACEBO",
                    "ZAN_HIGH",
                    "ZAN_HIGH",
                    "PLACEBO",
                    "PLACEBO",
                    "ZAN_HIGH",
                    "",
                    "ZAN_LOW",
                    "ZAN_LOW",
                    "ZAN_HIGH"
                ],
                "ACTARM": [
                    "Zanomaline Low Dose (54 mg)",
                    "Zanomaline Low Dose (54 mg)",
                    "Zanomaline High Dose (81 mg)",
                    "Placebo",
                    "Zanomaline High Dose (81 mg)",
                    "Zanomaline Low Dose (54 mg)",
                    "Zanomaline High Dose (81 mg)",
                    "Placebo",
                    "Placebo",
                    "Zanomaline High Dose (81 mg)",
                    "Zanomaline High Dose (81 mg)",
                    "Placebo",
                    "Placebo",
                    "Zanomaline High Dose (81 mg)",
                    "",
                    "Zanomaline Low Dose (54 mg)",
                    "Zanomaline Low Dose (54 mg)",
                    "Zanomaline High Dose (81 mg)"
                ],
                "ARMNRS": [
                    "",
                    "",
                    "",
                    "",
                    "",
                    "",
                    "",
                    "",
                    "",
                    "",
                    "",
                    "",
                    "",
                    "",
                    "SCREEN FAILURE",
                    "",
                    "",
                    ""
                ],
                "ACTARMUD": [
                    "",
                    "",
                    "",
                    "",
                    "",
                    "",
                    "",
                    "",
                    "",
                    "",
                    "",
                    "",
                    "",
                    "",
                    "",
                    "",
                    "",
                    ""
                ],
                "COUNTRY": [
                    "USA",
                    "USA",
                    "USA",
                    "USA",
                    "USA",
                    "USA",
                    "USA",
                    "USA",
                    "USA",
                    "USA",
                    "USA",
                    "USA",
                    "USA",
                    "USA",
                    "USA",
                    "USA",
                    "USA",
                    "USA"
                ]
            }
        },
        {
            "filename": "ex.xpt",
            "label": "Exposure",
            "domain": "EX",
            "variables": [
                {
                    "name": "STUDYID",
                    "label": "Study Identifier",
                    "type": "Char",
                    "length": 50
                },
                {
                    "name": "DOMAIN",
                    "label": "Domain Abbreviation",
                    "type": "Char",
                    "length": 50
                },
                {
                    "name": "USUBJID",
                    "label": "Unique Subject Identifier",
                    "type": "Char",
                    "length": 50
                },
                {
                    "name": "EXSEQ",
                    "label": "Sequence Number",
                    "type": "Num",
                    "length": 8
                },
                {
                    "name": "EXLNKID",
                    "label": "Link ID",
                    "type": "Char",
                    "length": 50
                },
                {
                    "name": "EXTRT",
                    "label": "Name of Treatment",
                    "type": "Char",
                    "length": 50
                },
                {
                    "name": "EXDOSE",
                    "label": "Dose",
                    "type": "Num",
                    "length": 8
                },
                {
                    "name": "EXDOSTXT",
                    "label": "Dose Description",
                    "type": "Char",
                    "length": 50
                },
                {
                    "name": "EXDOSU",
                    "label": "Dose Units",
                    "type": "Char",
                    "length": 50
                },
                {
                    "name": "EXDOSFRM",
                    "label": "Dose Form",
                    "type": "Char",
                    "length": 50
                },
                {
                    "name": "EXDOSFRQ",
                    "label": "Dosing Frequency per Interval",
                    "type": "Char",
                    "length": 50
                },
                {
                    "name": "EXROUTE",
                    "label": "Route of Administration",
                    "type": "Char",
                    "length": 50
                },
                {
                    "name": "EXVAMT",
                    "label": "Dose",
                    "type": "Num",
                    "length": 8
                },
                {
                    "name": "EXVAMTU",
                    "label": "Dose Units",
                    "type": "Char",
                    "length": 50
                },
                {
                    "name": "EXSTDTC",
                    "label": "Start Date/Time of Treatment",
                    "type": "Char",
                    "length": 50
                },
                {
                    "name": "EXENDTC",
                    "label": "End Date/Time of Treatment",
                    "type": "Char",
                    "length": 50
                },
                {
                    "name": "EXSTDY",
                    "label": "Study Day of Start of Treatment",
                    "type": "Num",
                    "length": 8
                },
                {
                    "name": "EXENDY",
                    "label": "Study Day of End of Treatment",
                    "type": "Num",
                    "length": 8
                }
            ],
            "records": {
                "STUDYID": [
                    "ABC",
                    "ABC",
                    "ABC"
                ],
                "DOMAIN": [
                    "EX",
                    "EX",
                    "EX"
                ],
                "USUBJID": [
                    "ABC1001",
                    "ABC2001",
                    "ABC2001"
                ],
                "EXSEQ": [
                    1,
                    1,
                    2
                ],
                "EXLNKID": [
                    "A2-10110114",
                    "A2-20110114",
                    "A2-20110125"
                ],
                "EXTRT": [
                    "DRUG X",
                    "DRUG Z",
                    "DRUG Z"
                ],
                "EXDOSE": [
                    3,
                    500,
                    500
                ],
                "EXDOSTXT": [
                    "",
                    "",
                    ""
                ],
                "EXDOSU": [
                    "mg/kg",
                    "mg",
                    "mg"
                ],
                "EXDOSFRM": [
                    "INJECTION",
                    "TABLET",
                    "TABLET"
                ],
                "EXDOSFRQ": [
                    "ONCE",
                    "QD",
                    "QD"
                ],
                "EXROUTE": [
                    "SUBCUTANEOUS",
                    "ORAL",
                    "ORAL"
                ],
                "EXVAMT": [
                    0.1,
                    null,
                    null
                ],
                "EXVAMTU": [
                    "mL",
                    "",
                    ""
                ],
                "EXSTDTC": [
                    "40557",
                    "40557",
                    "40568"
                ],
                "EXENDTC": [
                    "40571",
                    "40566",
                    "40571"
                ],
                "EXSTDY": [
                    1,
                    1,
                    12
                ],
                "EXENDY": [
                    15,
                    10,
                    15
                ]
            }
        }
    ],
    "standard": {
        "product": "sdtmig",
        "version": "3-4"
    },
    "codelists": []
}