STUDYID,DOMAIN,USUBJID,FTSEQ,FTTESTCD,FTTEST,FTCAT,FTSCAT,FTORRES,FTSTRESC,FTSTRESN,FTLOBXFL,FTREPNUM,VISITNUM,VISIT,VISITDY,EPOCH,FTDTC,FTDY,FTTPT,FTTPTNUM,FTELTM,FTTPTREF
CDISCPILOT01,FT,CDISC001,137,AVL0201,AVL02-List A Word 1,AVLT-REY,FORM 1,RECALLED,RECALLED,,,1,8,WEEK 8,56,TREATMENT,2013-01-23T12:00,55,,,,
CDISCPILOT01,FT,CDISC001,138,AVL0202,AVL02-List A Word 2,AVLT-REY,FORM 1,NOT RECALLED,NOT RECALLED,,,1,8,WEEK 8,56,TREATMENT,2013-01-23T12:00,55,,,,
CDISCPILOT01,FT,CDISC001,139,AVL0203,AVL02-List A Word 3,AVLT-REY,FORM 1,NOT RECALLED,NOT RECALLED,,,1,8,WEEK 8,56,TREATMENT,2013-01-23T12:00,55,,,,
CDISCPILOT01,FT,CDISC001,140,AVL0204,AVL02-List A Word 4,AVLT-REY,FORM 1,RECALLED,RECALLED,,,1,8,WEEK 8,56,TREATMENT,2013-01-23T12:00,55,,,,
CDISCPILOT01,FT,CDISC001,141,AVL0205,AVL02-List A Word 5,AVLT-REY,FORM 1,RECALLED,RECALLED,,,1,8,WEEK 8,56,TREATMENT,2013-01-23T12:00,55,,,,
CDISCPILOT01,FT,CDISC001,142,AVL0206,AVL02-List A Word 6,AVLT-REY,FORM 1,RECALLED,RECALLED,,,1,8,WEEK 8,56,TREATMENT,2013-01-23T12:00,55,,,,
CDISCPILOT01,FT,CDISC001,143,AVL0207,AVL02-List A Word 7,AVLT-REY,FORM 1,RECALLED,RECALLED,,,1,8,WEEK 8,56,TREATMENT,2013-01-23T12:00,55,,,,
CDISCPILOT01,FT,CDISC001,144,AVL0208,AVL02-List A Word 8,AVLT-REY,FORM 1,NOT RECALLED,NOT RECALLED,,,1,8,WEEK 8,56,TREATMENT,2013-01-23T12:00,55,,,,
CDISCPILOT01,FT,CDISC001,145,AVL0209,AVL02-List A Word 9,AVLT-REY,FORM 1,NOT RECALLED,NOT RECALLED,,,1,8,WEEK 8,56,TREATMENT,2013-01-23T12:00,55,,,,
CDISCPILOT01,FT,CDISC001,146,AVL0210,AVL02-List A Word 10,AVLT-REY,FORM 1,NOT RECALLED,NOT RECALLED,,,1,8,WEEK 8,56,TREATMENT,2013-01-23T12:00,55,,,,
CDISCPILOT01,FT,CDISC001,147,AVL0211,AVL02-List A Word 11,AVLT-REY,FORM 1,NOT RECALLED,NOT RECALLED,,,1,8,WEEK 8,56,TREATMENT,2013-01-23T12:00,55,,,,
CDISCPILOT01,FT,CDISC001,148,AVL0212,AVL02-List A Word 12,AVLT-REY,FORM 1,NOT RECALLED,NOT RECALLED,,,1,8,WEEK 8,56,TREATMENT,2013-01-23T12:00,55,,,,
CDISCPILOT01,FT,CDISC001,149,AVL0213,AVL02-List A Word 13,AVLT-REY,FORM 1,NOT RECALLED,NOT RECALLED,,,1,8,WEEK 8,56,TREATMENT,2013-01-23T12:00,55,,,,
CDISCPILOT01,FT,CDISC001,150,AVL0214,AVL02-List A Word 14,AVLT-REY,FORM 1,NOT RECALLED,NOT RECALLED,,,1,8,WEEK 8,56,TREATMENT,2013-01-23T12:00,55,,,,
CDISCPILOT01,FT,CDISC001,151,AVL0215,AVL02-List A Word 15,AVLT-REY,FORM 1,NOT RECALLED,NOT RECALLED,,,1,8,WEEK 8,56,TREATMENT,2013-01-23T12:00,55,,,,
CDISCPILOT01,FT,CDISC001,152,AVL0216,AVL02-List A Total,AVLT-REY,FORM 1,5,5,5,,1,8,WEEK 8,56,TREATMENT,2013-01-23T12:00,55,,,,
CDISCPILOT01,FT,CDISC001,153,AVL0217,AVL02-List A Intrusions,AVLT-REY,FORM 1,0,0,0,,1,8,WEEK 8,56,TREATMENT,2013-01-23T12:00,55,,,,
