STUDYID,DOMAIN,USUBJID,LBSEQ,LBSPID,LBTESTCD,LBTEST,LBCAT,LBSCAT,LBORRES,LBORRESU,LBORNRLO,LBORNRHI,LBSTRESC,LBSTRESN,LBSTRESU,LBSTNRLO,LBSTNRHI,LBNRIND,LBLOINC,LBSPEC,LBBLFL,EPOCH,VISITNUM,VISIT,LBDTC,LBDY,LBTPT,LBTPTNUM,LBELTM,LBTPTREF,LBRFTDTC
CDISC-TEST,LB,CDISC-TEST-001,1,46,ALB,Albumin,BIOCHEMISTRY,GENERAL,4.46,g/dL,,,4.46,4.46,g/dL,,,,1751-7,SERUM,,SCREENING,100,VISIT 1 (WEEK -2),2019-02-25,-15,Pre Dose,,,,
CDISC-TEST,LB,CDISC-TEST-001,2,37,ALB,Albumin,BIOCHEMISTRY,GENERAL,4.31,g/dL,,,4.31,4.31,g/dL,,,,1751-7,SERUM,,TREATMENT,200,VISIT 2 (WEEK 0),2019-03-12T09:00,1,Pre Dose,1,,First Dose,2019-03-12T10:00
CDISC-TEST,LB,CDISC-TEST-001,3,21,ALB,Albumin,BIOCHEMISTRY,GENERAL,3.62,g/dL,,,3.62,3.62,g/dL,,,,1751-7,SERUM,,TREATMENT,2200,VISIT 2 (WEEK 0),2019-03-12T12:00,1,2 Hours Post,2,,First Dose,2019-03-12T10:00
CDISC-TEST,LB,CDISC-TEST-001,4,11,ALB,Albumin,BIOCHEMISTRY,GENERAL,4.17,g/dL,,,4.17,4.17,g/dL,,,,1751-7,SERUM,,FOLLOW-UP,2900,END OF TRIAL,2019-10-10,213,,,,,
CDISC-TEST,LB,CDISC-TEST-001,5,43,ALT,Alanine Aminotransferase,BIOCHEMISTRY,GENERAL,14.99,U/L,,,14.99,14.99,U/L,,,,1742-6,SERUM,,SCREENING,100,VISIT 1 (WEEK -2),2019-02-25,-15,,,,,
CDISC-TEST,LB,CDISC-TEST-001,6,34,ALT,Alanine Aminotransferase,BIOCHEMISTRY,GENERAL,38.09,U/L,,,38.09,38.09,U/L,,,,1742-6,SERUM,,TREATMENT,200,VISIT 2 (WEEK 0),2019-03-12T08:45,1,Pre Dose,1,,,
CDISC-TEST,LB,CDISC-TEST-001,7,18,ALT,Alanine Aminotransferase,BIOCHEMISTRY,GENERAL,12.98,U/L,,,12.98,12.98,U/L,,,,1742-6,SERUM,,TREATMENT,2200,VISIT 2 (WEEK 0),2019-03-12T11:45,1,2 Hours Post,2,,,
CDISC-TEST,LB,CDISC-TEST-001,7,18,ALT,Alanine Aminotransferase,BIOCHEMISTRY,BIOCHEMISTRy,12.98,U/L,,,12.98,12.98,U/L,,,,1742-6,SERUM,,TREATMENT,2200,VISIT 2 (WEEK 0),2019-03-12T11:45,1,2 Hours Post,2,,,
