{
    "rule": {
        "Authorities": [
            {
                "Organization": "CDISC",
                "Standards": [
                    {
                        "Name": "SDTMIG",
                        "References": [
                            {
                                "Citations": [
                                    {
                                        "Document": "Model v2.0",
                                        "Item": "--SEQ",
                                        "Section": "Identifiers",
                                        "Cited_Guidance": "A number used to uniquely identify records for a subject within a domain. The Trial Summary domain does not contain subject data, and TSSEQ is a sequence number to ensure uniqueness within the dataset."
                                    }
                                ],
                                "Origin": "SDTM and SDTMIG Conformance Rules",
                                "Version": "2.0",
                                "Rule_Identifier": {
                                    "Id": "CG0028",
                                    "Version": "1"
                                }
                            }
                        ],
                        "Version": "3.4"
                    },
                    {
                        "Name": "SDTMIG",
                        "References": [
                            {
                                "Citations": [
                                    {
                                        "Document": "Model v1.4",
                                        "Item": "Table 2.2.4: --SEQ",
                                        "Section": "2.2.4",
                                        "Cited_Guidance": "Sequence number to ensure uniqueness of records within a dataset for a subject (or within a parameter, in the case of the Trial Summary domain). May be any valid number (including decimals) and does not have to start at 1."
                                    }
                                ],
                                "Origin": "SDTM and SDTMIG Conformance Rules",
                                "Version": "2.0",
                                "Rule_Identifier": {
                                    "Id": "CG0028",
                                    "Version": "1"
                                }
                            }
                        ],
                        "Version": "3.2"
                    },
                    {
                        "Name": "SDTMIG",
                        "References": [
                            {
                                "Citations": [
                                    {
                                        "Document": "Model v1.7",
                                        "Item": "--SEQ",
                                        "Section": "2.2.4",
                                        "Cited_Guidance": "Sequence number to ensure uniqueness of records within a dataset for a subject (or within a parameter, in the case of the Trial Summary domain). May be any valid number (including decimals) and does not have to start at 1."
                                    }
                                ],
                                "Origin": "SDTM and SDTMIG Conformance Rules",
                                "Version": "2.0",
                                "Rule_Identifier": {
                                    "Id": "CG0028",
                                    "Version": "1"
                                }
                            }
                        ],
                        "Version": "3.3"
                    }
                ]
            }
        ],
        "Check": {
            "any": [
                {
                    "all": [
                        {
                            "name": "--SEQ",
                            "operator": "exists"
                        },
                        {
                            "name": "USUBJID",
                            "operator": "non_empty"
                        },
                        {
                            "name": "--SEQ",
                            "operator": "is_not_unique_set",
                            "value": [
                                "DOMAIN",
                                "USUBJID"
                            ]
                        }
                    ]
                },
                {
                    "all": [
                        {
                            "name": "--SEQ",
                            "operator": "exists"
                        },
                        {
                            "name": "POOLID",
                            "operator": "non_empty"
                        },
                        {
                            "name": "--SEQ",
                            "operator": "is_not_unique_set",
                            "value": [
                                "DOMAIN",
                                "POOLID"
                            ]
                        }
                    ]
                }
            ]
        },
        "Core": {
            "Id": "CORE-000544",
            "Status": "Published",
            "Version": "1"
        },
        "Description": "Excluding TS.TSSEQ, raise an error when --SEQ is not a unique number per USUBJID per domain, or not a unique number per POOLID per domain, including when the domain is split into multiple files.",
        "Executability": "Fully Executable",
        "Outcome": {
            "Message": "--SEQ is not a unique number per USUBJID per domain, nor a unique number per POOLID per domain, including when the domain is split into multiple files"
        },
        "Scope": {
            "Classes": {
                "Include": [
                    "ALL"
                ]
            },
            "Domains": {
                "Exclude": [
                    "TS"
                ]
            }
        },
        "Sensitivity": "Record",
        "Rule_Type": "Record Data"
    },
    "datasets": [
        {
            "filename": "ds.xpt",
            "label": "Disposition",
            "domain": "DS",
            "variables": [
                {
                    "name": "STUDYID",
                    "label": "Study Identifier",
                    "type": "Char",
                    "length": 12
                },
                {
                    "name": "DOMAIN",
                    "label": "Domain Abbreviation",
                    "type": "Char",
                    "length": 2
                },
                {
                    "name": "USUBJID",
                    "label": "Unique Subject Identifier",
                    "type": "Char",
                    "length": 20
                },
                {
                    "name": "DSSEQ",
                    "label": "Sequence Number",
                    "type": "Num",
                    "length": 8
                },
                {
                    "name": "DSTERM",
                    "label": "Reported Term for the Disposition Event",
                    "type": "Char",
                    "length": 200
                },
                {
                    "name": "DSDECOD",
                    "label": "Standardized Disposition Term",
                    "type": "Char",
                    "length": 50
                }
            ],
            "records": {
                "STUDYID": [
                    "CDISCCORE01",
                    "CDISCCORE01",
                    "CDISCCORE01",
                    "CDISCCORE01",
                    "CDISCCORE01",
                    "CDISCCORE01",
                    "CDISCCORE01",
                    "CDISCCORE01",
                    "CDISCCORE01",
                    "CDISCCORE01",
                    "CDISCCORE01",
                    "CDISCCORE01",
                    "CDISCCORE01",
                    "CDISCCORE01"
                ],
                "DOMAIN": [
                    "DS",
                    "DS",
                    "DS",
                    "DS",
                    "DS",
                    "DS",
                    "DS",
                    "DS",
                    "DS",
                    "DS",
                    "DS",
                    "DS",
                    "DS",
                    "DS"
                ],
                "USUBJID": [
                    "0001",
                    "0001",
                    "0001",
                    "0001",
                    "0001",
                    "0001",
                    "0001",
                    "0002",
                    "0002",
                    "0002",
                    "0002",
                    "0002",
                    "0002",
                    "0002"
                ],
                "DSSEQ": [
                    1,
                    2,
                    3,
                    4,
                    5,
                    6,
                    7,
                    1,
                    2,
                    3,
                    4,
                    5,
                    6,
                    7
                ],
                "DSTERM": [
                    "INFORMED CONSENT OBTAINED",
                    "COMPLETED",
                    "RANDOMIZED",
                    "ADVERSE EVENT",
                    "PROGRESSIVE DISEASE",
                    "DEATH",
                    "PROGRESSIVE DISEASE",
                    "INFORMED CONSENT OBTAINED",
                    "COMPLETED",
                    "RANDOMIZED",
                    "ADVERSE EVENT",
                    "ADVERSE EVENT",
                    "DEATH",
                    "DEATH"
                ],
                "DSDECOD": [
                    "INFORMED CONSENT OBTAINED",
                    "COMPLETED",
                    "RANDOMIZED",
                    "ADVERSE EVENT",
                    "PROGRESSIVE DISEASE",
                    "LAST CONTACT",
                    "DEATH",
                    "INFORMED CONSENT OBTAINED",
                    "COMPLETED",
                    "RANDOMIZED",
                    "ADVERSE EVENT",
                    "DEATH",
                    "LAST CONTACT",
                    "LAST CONTACT"
                ]
            }
        },
        {
            "filename": "ss1.xpt",
            "label": "Subject Status1",
            "domain": "SS",
            "variables": [
                {
                    "name": "STUDYID",
                    "label": "Study Identifier",
                    "type": "Char",
                    "length": 12
                },
                {
                    "name": "DOMAIN",
                    "label": "Domain Abbreviation",
                    "type": "Char",
                    "length": 2
                },
                {
                    "name": "USUBJID",
                    "label": "Unique Subject Identifier",
                    "type": "Char",
                    "length": 20
                },
                {
                    "name": "SSSEQ",
                    "label": "Sequence Number",
                    "type": "Num",
                    "length": 8
                },
                {
                    "name": "SSTESTCD",
                    "label": "Status Short Name",
                    "type": "Char",
                    "length": 8
                },
                {
                    "name": "SSTEST",
                    "label": "Status Name",
                    "type": "Char",
                    "length": 50
                },
                {
                    "name": "SSORRES",
                    "label": "Result or Finding\r\nOriginal Result",
                    "type": "Char",
                    "length": 50
                },
                {
                    "name": "SSSTRESC",
                    "label": "Character\r\nResult/Finding in\r\nStd Format",
                    "type": "Char",
                    "length": 50
                }
            ],
            "records": {
                "STUDYID": [
                    "CDISCCORE01",
                    "CDISCCORE01",
                    "CDISCCORE01",
                    "CDISCCORE01",
                    "CDISCCORE01",
                    "CDISCCORE01",
                    "CDISCCORE01",
                    "CDISCCORE01",
                    "CDISCCORE01",
                    "CDISCCORE01",
                    "CDISCCORE01",
                    "CDISCCORE01",
                    "CDISCCORE01",
                    "CDISCCORE01"
                ],
                "DOMAIN": [
                    "SS",
                    "SS",
                    "SS",
                    "SS",
                    "SS",
                    "SS",
                    "SS",
                    "SS",
                    "SS",
                    "SS",
                    "SS",
                    "SS",
                    "SS",
                    "SS"
                ],
                "USUBJID": [
                    "0001",
                    "0001",
                    "0001",
                    "0001",
                    "0001",
                    "0001",
                    "0001",
                    "0002",
                    "0002",
                    "0002",
                    "0002",
                    "0002",
                    "0002",
                    "0002"
                ],
                "SSSEQ": [
                    1,
                    2,
                    3,
                    4,
                    5,
                    6,
                    7,
                    1,
                    2,
                    3,
                    4,
                    5,
                    6,
                    7
                ],
                "SSTESTCD": [
                    "SURVSTAT",
                    "SURVSTAT",
                    "SURVSTAT",
                    "SURVSTAT",
                    "SURVSTAT",
                    "SURVSTAT",
                    "SURVSTAT",
                    "SURVSTAT",
                    "SURVSTAT",
                    "SURVSTAT",
                    "SURVSTAT",
                    "SURVSTAT",
                    "SURVSTAT",
                    "SURVSTAT"
                ],
                "SSTEST": [
                    "Survival Status",
                    "Survival Status",
                    "Survival Status",
                    "Survival Status",
                    "Survival Status",
                    "Survival Status",
                    "Survival Status",
                    "Survival Status",
                    "Survival Status",
                    "Survival Status",
                    "Survival Status",
                    "Survival Status",
                    "Survival Status",
                    "Survival Status"
                ],
                "SSORRES": [
                    "ALIVE",
                    "DEAD",
                    "ALIVE",
                    "DEAD",
                    "ALIVE",
                    "DEAD",
                    "ALIVE",
                    "DEAD",
                    "ALIVE",
                    "DEAD",
                    "ALIVE",
                    "DEAD",
                    "ALIVE",
                    "DEAD"
                ],
                "SSSTRESC": [
                    "ALIVE",
                    "DEAD",
                    "ALIVE",
                    "DEAD",
                    "ALIVE",
                    "DEAD",
                    "ALIVE",
                    "DEAD",
                    "ALIVE",
                    "DEAD",
                    "ALIVE",
                    "DEAD",
                    "ALIVE",
                    "DEAD"
                ]
            }
        },
        {
            "filename": "ss2.xpt",
            "label": "Subject Status2",
            "domain": "SS",
            "variables": [
                {
                    "name": "STUDYID",
                    "label": "Study Identifier",
                    "type": "Char",
                    "length": 12
                },
                {
                    "name": "DOMAIN",
                    "label": "Domain Abbreviation",
                    "type": "Char",
                    "length": 2
                },
                {
                    "name": "USUBJID",
                    "label": "Unique Subject Identifier",
                    "type": "Char",
                    "length": 20
                },
                {
                    "name": "SSSEQ",
                    "label": "Sequence Number",
                    "type": "Num",
                    "length": 8
                },
                {
                    "name": "SSTESTCD",
                    "label": "Status Short Name",
                    "type": "Char",
                    "length": 8
                },
                {
                    "name": "SSTEST",
                    "label": "Status Name",
                    "type": "Char",
                    "length": 50
                },
                {
                    "name": "SSORRES",
                    "label": "Result or Finding\r\nOriginal Result",
                    "type": "Char",
                    "length": 50
                },
                {
                    "name": "SSSTRESC",
                    "label": "Character\r\nResult/Finding in\r\nStd Format",
                    "type": "Char",
                    "length": 50
                }
            ],
            "records": {
                "STUDYID": [
                    "CDISCCORE01",
                    "CDISCCORE01",
                    "CDISCCORE01",
                    "CDISCCORE01",
                    "CDISCCORE01",
                    "CDISCCORE01",
                    "CDISCCORE01",
                    "CDISCCORE01",
                    "CDISCCORE01",
                    "CDISCCORE01",
                    "CDISCCORE01",
                    "CDISCCORE01",
                    "CDISCCORE01",
                    "CDISCCORE01"
                ],
                "DOMAIN": [
                    "SS",
                    "SS",
                    "SS",
                    "SS",
                    "SS",
                    "SS",
                    "SS",
                    "SS",
                    "SS",
                    "SS",
                    "SS",
                    "SS",
                    "SS",
                    "SS"
                ],
                "USUBJID": [
                    "0001",
                    "0001",
                    "0001",
                    "0001",
                    "0001",
                    "0001",
                    "0001",
                    "0002",
                    "0002",
                    "0002",
                    "0002",
                    "0002",
                    "0002",
                    "0002"
                ],
                "SSSEQ": [
                    8,
                    9,
                    10,
                    11,
                    12,
                    13,
                    14,
                    8,
                    9,
                    10,
                    11,
                    12,
                    13,
                    14
                ],
                "SSTESTCD": [
                    "SURVSTAT",
                    "SURVSTAT",
                    "SURVSTAT",
                    "SURVSTAT",
                    "SURVSTAT",
                    "SURVSTAT",
                    "SURVSTAT",
                    "SURVSTAT",
                    "SURVSTAT",
                    "SURVSTAT",
                    "SURVSTAT",
                    "SURVSTAT",
                    "SURVSTAT",
                    "SURVSTAT"
                ],
                "SSTEST": [
                    "Survival Status",
                    "Survival Status",
                    "Survival Status",
                    "Survival Status",
                    "Survival Status",
                    "Survival Status",
                    "Survival Status",
                    "Survival Status",
                    "Survival Status",
                    "Survival Status",
                    "Survival Status",
                    "Survival Status",
                    "Survival Status",
                    "Survival Status"
                ],
                "SSORRES": [
                    "ALIVE",
                    "DEAD",
                    "ALIVE",
                    "DEAD",
                    "ALIVE",
                    "DEAD",
                    "ALIVE",
                    "DEAD",
                    "ALIVE",
                    "DEAD",
                    "ALIVE",
                    "DEAD",
                    "ALIVE",
                    "DEAD"
                ],
                "SSSTRESC": [
                    "ALIVE",
                    "DEAD",
                    "ALIVE",
                    "DEAD",
                    "ALIVE",
                    "DEAD",
                    "ALIVE",
                    "DEAD",
                    "ALIVE",
                    "DEAD",
                    "ALIVE",
                    "DEAD",
                    "ALIVE",
                    "DEAD"
                ]
            }
        },
        {
            "filename": "ae.xpt",
            "label": "Adverse Events",
            "domain": "AE",
            "variables": [
                {
                    "name": "STUDYID",
                    "label": "Study Identifier",
                    "type": "Char",
                    "length": 12
                },
                {
                    "name": "DOMAIN",
                    "label": "Domain Abbreviation",
                    "type": "Char",
                    "length": 2
                },
                {
                    "name": "POOLID",
                    "label": "Pool Identifier",
                    "type": "Char",
                    "length": 20
                },
                {
                    "name": "AESEQ",
                    "label": "Sequence Number",
                    "type": "Num",
                    "length": 8
                },
                {
                    "name": "AETERM",
                    "label": "Reported Term for the Adverse Event",
                    "type": "Char",
                    "length": 200
                },
                {
                    "name": "AEDECOD",
                    "label": "Standardized Disposition Term",
                    "type": "Char",
                    "length": 50
                }
            ],
            "records": {
                "STUDYID": [
                    "CDISCCORE01",
                    "CDISCCORE01",
                    "CDISCCORE01",
                    "CDISCCORE01",
                    "CDISCCORE01",
                    "CDISCCORE01",
                    "CDISCCORE01",
                    "CDISCCORE01",
                    "CDISCCORE01",
                    "CDISCCORE01",
                    "CDISCCORE01",
                    "CDISCCORE01",
                    "CDISCCORE01",
                    "CDISCCORE01"
                ],
                "DOMAIN": [
                    "AE",
                    "AE",
                    "AE",
                    "AE",
                    "AE",
                    "AE",
                    "AE",
                    "AE",
                    "AE",
                    "AE",
                    "AE",
                    "AE",
                    "AE",
                    "AE"
                ],
                "POOLID": [
                    "0001",
                    "0001",
                    "0001",
                    "0001",
                    "0001",
                    "0001",
                    "0001",
                    "0002",
                    "0002",
                    "0002",
                    "0002",
                    "0002",
                    "0002",
                    "0002"
                ],
                "AESEQ": [
                    1,
                    2,
                    3,
                    4,
                    5,
                    6,
                    7,
                    1,
                    2,
                    3,
                    4,
                    5,
                    6,
                    7
                ],
                "AETERM": [
                    "INFORMED CONSENT OBTAINED",
                    "COMPLETED",
                    "RANDOMIZED",
                    "ADVERSE EVENT",
                    "PROGRESSIVE DISEASE",
                    "DEATH",
                    "PROGRESSIVE DISEASE",
                    "INFORMED CONSENT OBTAINED",
                    "COMPLETED",
                    "RANDOMIZED",
                    "ADVERSE EVENT",
                    "ADVERSE EVENT",
                    "DEATH",
                    "DEATH"
                ],
                "AEDECOD": [
                    "INFORMED CONSENT OBTAINED",
                    "COMPLETED",
                    "RANDOMIZED",
                    "ADVERSE EVENT",
                    "PROGRESSIVE DISEASE",
                    "LAST CONTACT",
                    "DEATH",
                    "INFORMED CONSENT OBTAINED",
                    "COMPLETED",
                    "RANDOMIZED",
                    "ADVERSE EVENT",
                    "DEATH",
                    "LAST CONTACT",
                    "LAST CONTACT"
                ]
            }
        },
        {
            "filename": "lbae.xpt",
            "label": "Labs AE",
            "domain": "LB",
            "variables": [
                {
                    "name": "STUDYID",
                    "label": "Study Identifier",
                    "type": "Char",
                    "length": 12
                },
                {
                    "name": "DOMAIN",
                    "label": "Domain Abbreviation",
                    "type": "Char",
                    "length": 2
                },
                {
                    "name": "POOLID",
                    "label": "Pool Identifier",
                    "type": "Char",
                    "length": 20
                },
                {
                    "name": "LBSEQ",
                    "label": "Sequence Number",
                    "type": "Num",
                    "length": 8
                },
                {
                    "name": "LBTESTCD",
                    "label": "Status Short Name",
                    "type": "Char",
                    "length": 8
                },
                {
                    "name": "LBTEST",
                    "label": "Status Name",
                    "type": "Char",
                    "length": 50
                },
                {
                    "name": "LBORRES",
                    "label": "Result or Finding\r\nOriginal Result",
                    "type": "Char",
                    "length": 50
                },
                {
                    "name": "LBSTRESC",
                    "label": "Character\r\nResult/Finding in\r\nStd Format",
                    "type": "Char",
                    "length": 50
                }
            ],
            "records": {
                "STUDYID": [
                    "CDISCCORE01",
                    "CDISCCORE01",
                    "CDISCCORE01",
                    "CDISCCORE01",
                    "CDISCCORE01",
                    "CDISCCORE01",
                    "CDISCCORE01",
                    "CDISCCORE01",
                    "CDISCCORE01",
                    "CDISCCORE01",
                    "CDISCCORE01",
                    "CDISCCORE01",
                    "CDISCCORE01",
                    "CDISCCORE01"
                ],
                "DOMAIN": [
                    "LB",
                    "LB",
                    "LB",
                    "LB",
                    "LB",
                    "LB",
                    "LB",
                    "LB",
                    "LB",
                    "LB",
                    "LB",
                    "LB",
                    "LB",
                    "LB"
                ],
                "POOLID": [
                    "0001",
                    "0001",
                    "0001",
                    "0001",
                    "0001",
                    "0001",
                    "0001",
                    "0002",
                    "0002",
                    "0002",
                    "0002",
                    "0002",
                    "0002",
                    "0002"
                ],
                "LBSEQ": [
                    4,
                    5,
                    6,
                    7,
                    8,
                    9,
                    10,
                    1,
                    2,
                    3,
                    4,
                    5,
                    6,
                    7
                ],
                "LBTESTCD": [
                    "SURVSTAT",
                    "SURVSTAT",
                    "SURVSTAT",
                    "SURVSTAT",
                    "SURVSTAT",
                    "SURVSTAT",
                    "SURVSTAT",
                    "SURVSTAT",
                    "SURVSTAT",
                    "SURVSTAT",
                    "SURVSTAT",
                    "SURVSTAT",
                    "SURVSTAT",
                    "SURVSTAT"
                ],
                "LBTEST": [
                    "Survival Status",
                    "Survival Status",
                    "Survival Status",
                    "Survival Status",
                    "Survival Status",
                    "Survival Status",
                    "Survival Status",
                    "Survival Status",
                    "Survival Status",
                    "Survival Status",
                    "Survival Status",
                    "Survival Status",
                    "Survival Status",
                    "Survival Status"
                ],
                "LBORRES": [
                    "ALIVE",
                    "DEAD",
                    "ALIVE",
                    "DEAD",
                    "ALIVE",
                    "DEAD",
                    "ALIVE",
                    "DEAD",
                    "ALIVE",
                    "DEAD",
                    "ALIVE",
                    "DEAD",
                    "ALIVE",
                    "DEAD"
                ],
                "LBSTRESC": [
                    "ALIVE",
                    "DEAD",
                    "ALIVE",
                    "DEAD",
                    "ALIVE",
                    "DEAD",
                    "ALIVE",
                    "DEAD",
                    "ALIVE",
                    "DEAD",
                    "ALIVE",
                    "DEAD",
                    "ALIVE",
                    "DEAD"
                ]
            }
        },
        {
            "filename": "lbds.xpt",
            "label": "Labs DS",
            "domain": "LB",
            "variables": [
                {
                    "name": "STUDYID",
                    "label": "Study Identifier",
                    "type": "Char",
                    "length": 12
                },
                {
                    "name": "DOMAIN",
                    "label": "Domain Abbreviation",
                    "type": "Char",
                    "length": 2
                },
                {
                    "name": "POOLID",
                    "label": "Pool Identifier",
                    "type": "Char",
                    "length": 20
                },
                {
                    "name": "LBSEQ",
                    "label": "Sequence Number",
                    "type": "Num",
                    "length": 8
                },
                {
                    "name": "LBTESTCD",
                    "label": "Status Short Name",
                    "type": "Char",
                    "length": 8
                },
                {
                    "name": "LBTEST",
                    "label": "Status Name",
                    "type": "Char",
                    "length": 50
                },
                {
                    "name": "LBORRES",
                    "label": "Result or Finding\r\nOriginal Result",
                    "type": "Char",
                    "length": 50
                },
                {
                    "name": "LBSTRESC",
                    "label": "Character\r\nResult/Finding in\r\nStd Format",
                    "type": "Char",
                    "length": 50
                }
            ],
            "records": {
                "STUDYID": [
                    "CDISCCORE01",
                    "CDISCCORE01",
                    "CDISCCORE01",
                    "CDISCCORE01",
                    "CDISCCORE01",
                    "CDISCCORE01",
                    "CDISCCORE01",
                    "CDISCCORE01",
                    "CDISCCORE01",
                    "CDISCCORE01",
                    "CDISCCORE01",
                    "CDISCCORE01",
                    "CDISCCORE01",
                    "CDISCCORE01"
                ],
                "DOMAIN": [
                    "LB",
                    "LB",
                    "LB",
                    "LB",
                    "LB",
                    "LB",
                    "LB",
                    "LB",
                    "LB",
                    "LB",
                    "LB",
                    "LB",
                    "LB",
                    "LB"
                ],
                "POOLID": [
                    "0001",
                    "0001",
                    "0001",
                    "0001",
                    "0001",
                    "0001",
                    "0001",
                    "0002",
                    "0002",
                    "0002",
                    "0002",
                    "0002",
                    "0002",
                    "0002"
                ],
                "LBSEQ": [
                    11,
                    12,
                    13,
                    14,
                    15,
                    16,
                    17,
                    8,
                    9,
                    10,
                    11,
                    12,
                    13,
                    14
                ],
                "LBTESTCD": [
                    "SURVSTAT",
                    "SURVSTAT",
                    "SURVSTAT",
                    "SURVSTAT",
                    "SURVSTAT",
                    "SURVSTAT",
                    "SURVSTAT",
                    "SURVSTAT",
                    "SURVSTAT",
                    "SURVSTAT",
                    "SURVSTAT",
                    "SURVSTAT",
                    "SURVSTAT",
                    "SURVSTAT"
                ],
                "LBTEST": [
                    "Survival Status",
                    "Survival Status",
                    "Survival Status",
                    "Survival Status",
                    "Survival Status",
                    "Survival Status",
                    "Survival Status",
                    "Survival Status",
                    "Survival Status",
                    "Survival Status",
                    "Survival Status",
                    "Survival Status",
                    "Survival Status",
                    "Survival Status"
                ],
                "LBORRES": [
                    "ALIVE",
                    "DEAD",
                    "ALIVE",
                    "DEAD",
                    "ALIVE",
                    "DEAD",
                    "ALIVE",
                    "DEAD",
                    "ALIVE",
                    "DEAD",
                    "ALIVE",
                    "DEAD",
                    "ALIVE",
                    "DEAD"
                ],
                "LBSTRESC": [
                    "ALIVE",
                    "DEAD",
                    "ALIVE",
                    "DEAD",
                    "ALIVE",
                    "DEAD",
                    "ALIVE",
                    "DEAD",
                    "ALIVE",
                    "DEAD",
                    "ALIVE",
                    "DEAD",
                    "ALIVE",
                    "DEAD"
                ]
            }
        },
        {
            "filename": "suppec.xpt",
            "label": "Supplemental Qualifiers for Exposure as Collected",
            "domain": "SUPPEC",
            "variables": [
                {
                    "name": "STUDYID",
                    "label": "Study Identifier",
                    "type": "Char",
                    "length": 12
                },
                {
                    "name": "RDOMAIN",
                    "label": "Related Domain Abbreviation",
                    "type": "Char",
                    "length": 6
                },
                {
                    "name": "USUBJID",
                    "label": "Unique Subject Identifier",
                    "type": "Char",
                    "length": 8
                },
                {
                    "name": "IDVAR",
                    "label": "Identifying Variable",
                    "type": "Char",
                    "length": 200
                },
                {
                    "name": "IDVARVAL",
                    "label": "Identifying Variable Value",
                    "type": "Char",
                    "length": 200
                },
                {
                    "name": "QNAM",
                    "label": "Qualifier Variable Name",
                    "type": "Char",
                    "length": 8
                },
                {
                    "name": "QLABEL",
                    "label": "Qualifier Variable Label",
                    "type": "Char",
                    "length": 40
                },
                {
                    "name": "QVAL",
                    "label": "Data Value",
                    "type": "Char",
                    "length": 200
                },
                {
                    "name": "QORIG",
                    "label": "Origin",
                    "type": "Char",
                    "length": 13
                },
                {
                    "name": "QEVAL",
                    "label": "Evaluator",
                    "type": "Char",
                    "length": 200
                }
            ],
            "records": {
                "STUDYID": [
                    "CDISCPILOT01",
                    "CDISCPILOT01",
                    "CDISCPILOT01",
                    "CDISCPILOT01"
                ],
                "RDOMAIN": [
                    "EC",
                    "EC",
                    "EC",
                    "EC"
                ],
                "USUBJID": [
                    "CDISC009",
                    "CDISC009",
                    "CDISC009",
                    "CDISC009"
                ],
                "IDVAR": [
                    "",
                    "",
                    "ECSEQ",
                    "ECSEQ"
                ],
                "IDVARVAL": [
                    "",
                    "",
                    "127",
                    "128"
                ],
                "QNAM": [
                    "ECREASOC",
                    "ECREASOC",
                    "ECREASOC",
                    "ECREASOC"
                ],
                "QLABEL": [
                    "Reason for Occur Value",
                    "Reason for Occur Value",
                    "Reason for Occur Value",
                    "Reason for Occur Value"
                ],
                "QVAL": [
                    "INVESTIGATOR DECISION",
                    "INVESTIGATOR DECISION",
                    "INVESTIGATOR DECISION",
                    "INVESTIGATOR DECISION"
                ],
                "QORIG": [
                    "COLLECTED",
                    "COLLECTED",
                    "COLLECTED",
                    "COLLECTED"
                ],
                "QEVAL": [
                    "INVESTIGATOR",
                    "INVESTIGATOR",
                    "INVESTIGATOR",
                    "INVESTIGATOR"
                ]
            }
        },
        {
            "filename": "lb.xpt",
            "label": "Laboratory Test Results",
            "domain": "LB",
            "variables": [
                {
                    "name": "STUDYID",
                    "label": "Study Identifier",
                    "type": "Char",
                    "length": 12
                },
                {
                    "name": "DOMAIN",
                    "label": "Domain Abbreviation",
                    "type": "Char",
                    "length": 2
                },
                {
                    "name": "USUBJID",
                    "label": "Unique Subject Identifier",
                    "type": "Char",
                    "length": 8
                },
                {
                    "name": "LBSEQ",
                    "label": "Sequence Number",
                    "type": "Num",
                    "length": 8
                },
                {
                    "name": "LBTESTCD",
                    "label": "Lab Test or Examination Short Name",
                    "type": "Char",
                    "length": 7
                },
                {
                    "name": "LBTEST",
                    "label": "Lab Test or Examination Name",
                    "type": "Char",
                    "length": 39
                },
                {
                    "name": "LBCAT",
                    "label": "Category for Lab Test",
                    "type": "Char",
                    "length": 10
                },
                {
                    "name": "LBORRES",
                    "label": "Result or Finding in Original Units",
                    "type": "Char",
                    "length": 6
                },
                {
                    "name": "LBORRESU",
                    "label": "Original Units",
                    "type": "Char",
                    "length": 7
                },
                {
                    "name": "LBORNRLO",
                    "label": "Reference Range Lower Limit in Orig Unit",
                    "type": "Char",
                    "length": 200
                },
                {
                    "name": "LBORNRHI",
                    "label": "Reference Range Upper Limit in Orig Unit",
                    "type": "Char",
                    "length": 200
                },
                {
                    "name": "LBSTRESC",
                    "label": "Character Result/Finding in Std Format",
                    "type": "Char",
                    "length": 8
                },
                {
                    "name": "LBSTRESN",
                    "label": "Numeric Result/Finding in Standard Units",
                    "type": "Num",
                    "length": 8
                },
                {
                    "name": "LBSTRESU",
                    "label": "Standard Units",
                    "type": "Char",
                    "length": 7
                },
                {
                    "name": "LBSTNRLO",
                    "label": "Reference Range Lower Limit-Std Units",
                    "type": "Num",
                    "length": 8
                },
                {
                    "name": "LBSTNRHI",
                    "label": "Reference Range Upper Limit-Std Units",
                    "type": "Num",
                    "length": 8
                },
                {
                    "name": "LBNRIND",
                    "label": "Reference Range Indicator",
                    "type": "Char",
                    "length": 8
                },
                {
                    "name": "LBLOBXFL",
                    "label": "Last Observation Before Exposure Flag",
                    "type": "Char",
                    "length": 1
                },
                {
                    "name": "VISITNUM",
                    "label": "Visit Number",
                    "type": "Num",
                    "length": 8
                },
                {
                    "name": "VISIT",
                    "label": "Visit Name",
                    "type": "Char",
                    "length": 200
                },
                {
                    "name": "EPOCH",
                    "label": "Epoch",
                    "type": "Char",
                    "length": 9
                },
                {
                    "name": "LBDTC",
                    "label": "Date/Time of Specimen Collection",
                    "type": "Char",
                    "length": 19
                },
                {
                    "name": "LBDY",
                    "label": "Study Day of Specimen Collection",
                    "type": "Num",
                    "length": 8
                },
                {
                    "name": "LBTOX",
                    "label": "Toxicity",
                    "type": "Char",
                    "length": 50
                },
                {
                    "name": "LBTOXGR",
                    "label": "Standard Toxicity Grade",
                    "type": "Char",
                    "length": 50
                }
            ],
            "records": {
                "STUDYID": [
                    "CDISCPILOT01",
                    "CDISCPILOT01",
                    "CDISCPILOT01",
                    "CDISCPILOT01"
                ],
                "DOMAIN": [
                    "LB",
                    "LB",
                    "LB",
                    "LB"
                ],
                "USUBJID": [
                    "CDISC001",
                    "CDISC001",
                    "CDISC001",
                    "CDISC002"
                ],
                "LBSEQ": [
                    1,
                    2,
                    3,
                    1
                ],
                "LBTESTCD": [
                    "ALB",
                    "ALP",
                    "ALP",
                    "ALB"
                ],
                "LBTEST": [
                    "Albumin",
                    "Alkaline Phosphatase",
                    "Alkaline Phosphatase",
                    "Albumin"
                ],
                "LBCAT": [
                    "CHEMISTRY",
                    "CHEMISTRY",
                    "CHEMISTRY",
                    "CHEMISTRY"
                ],
                "LBORRES": [
                    "3.9",
                    "93",
                    "93",
                    "3.9"
                ],
                "LBORRESU": [
                    "g/dL",
                    "U/L",
                    "U/L",
                    "g/dL"
                ],
                "LBORNRLO": [
                    "3.5",
                    "35",
                    "35",
                    "3.5"
                ],
                "LBORNRHI": [
                    "4.6",
                    "115",
                    "115",
                    "4.6"
                ],
                "LBSTRESC": [
                    "39",
                    "93",
                    "93",
                    "39"
                ],
                "LBSTRESN": [
                    39,
                    93,
                    93,
                    39
                ],
                "LBSTRESU": [
                    "g/L",
                    "U/L",
                    "U/L",
                    "g/L"
                ],
                "LBSTNRLO": [
                    35,
                    35,
                    35,
                    35
                ],
                "LBSTNRHI": [
                    46,
                    115,
                    115,
                    46
                ],
                "LBNRIND": [
                    "NORMAL",
                    "NORMAL",
                    "NORMAL",
                    "NORMAL"
                ],
                "LBLOBXFL": [
                    "Y",
                    "Y",
                    "Y",
                    "Y"
                ],
                "VISITNUM": [
                    1,
                    1,
                    1,
                    1
                ],
                "VISIT": [
                    "SCREENING 1",
                    "SCREENING 1",
                    "SCREENING 1",
                    "SCREENING 1"
                ],
                "EPOCH": [
                    "SCREENING",
                    "SCREENING",
                    "SCREENING",
                    "SCREENING"
                ],
                "LBDTC": [
                    "2012-11-23T11:20",
                    "2012-11-23T11:20",
                    "2012-11-23T11:20",
                    "2012-11-23T11:20"
                ],
                "LBDY": [
                    -7,
                    -7,
                    -7,
                    -7
                ],
                "LBTOX": [
                    "",
                    "",
                    "",
                    ""
                ],
                "LBTOXGR": [
                    "Grade 2",
                    "2",
                    "Grade II",
                    "XXXXXx 44"
                ]
            }
        },
        {
            "filename": "sv.xpt",
            "label": "Subject Visits",
            "domain": "SV",
            "variables": [
                {
                    "name": "STUDYID",
                    "label": "Study Identifier",
                    "type": "Char",
                    "length": 12
                },
                {
                    "name": "DOMAIN",
                    "label": "Domain Abbreviation",
                    "type": "Char",
                    "length": 2
                },
                {
                    "name": "USUBJID",
                    "label": "Unique Subject Identifier",
                    "type": "Char",
                    "length": 8
                },
                {
                    "name": "VISITNUM",
                    "label": "Visit Number",
                    "type": "Num",
                    "length": 8
                },
                {
                    "name": "VISIT",
                    "label": "Visit Name",
                    "type": "Char",
                    "length": 200
                },
                {
                    "name": "SVPRESP",
                    "label": "Pre-specified",
                    "type": "Char",
                    "length": 2
                },
                {
                    "name": "VISITDY",
                    "label": "Visit Day",
                    "type": "Num",
                    "length": 8
                },
                {
                    "name": "SVSTDTC",
                    "label": "Start Date/Time of Visit",
                    "type": "Char",
                    "length": 10
                },
                {
                    "name": "SVENDTC",
                    "label": "End Date/Time of Visit",
                    "type": "Char",
                    "length": 10
                },
                {
                    "name": "SVSTDY",
                    "label": "Study Day of Start of Visit",
                    "type": "Num",
                    "length": 8
                },
                {
                    "name": "SVENDY",
                    "label": "Study Day of End of Visit",
                    "type": "Num",
                    "length": 8
                },
                {
                    "name": "SVUPDES",
                    "label": "Description of Unplanned Visit",
                    "type": "Char",
                    "length": 200
                }
            ],
            "records": {
                "STUDYID": [
                    "CDISCPILOT01",
                    "CDISCPILOT01",
                    "CDISCPILOT01",
                    "CDISCPILOT01",
                    "CDISCPILOT01",
                    "CDISCPILOT01",
                    "CDISCPILOT01",
                    "CDISCPILOT01",
                    "CDISCPILOT01",
                    "CDISCPILOT01"
                ],
                "DOMAIN": [
                    "SV",
                    "SV",
                    "SV",
                    "SV",
                    "SV",
                    "SV",
                    "SV",
                    "SV",
                    "SV",
                    "SV"
                ],
                "USUBJID": [
                    "CDISC001",
                    "CDISC001",
                    "CDISC001",
                    "CDISC001",
                    "CDISC001",
                    "CDISC001",
                    "CDISC001",
                    "CDISC001",
                    "CDISC001",
                    "CDISC001"
                ],
                "VISITNUM": [
                    1,
                    2,
                    3,
                    4,
                    5,
                    5.01,
                    7,
                    8,
                    101,
                    201
                ],
                "VISIT": [
                    "SCREENING 1",
                    "SCREENING 2",
                    "BASELINE",
                    "WEEK 2",
                    "WEEK 4",
                    "WEEK 4: UNSCHEDULED 01",
                    "WEEK 6",
                    "WEEK 8",
                    "EARLY DISCONTINUATION",
                    "EARLY DISCONTINUATION RETRIEVAL"
                ],
                "SVPRESP": [
                    "Y",
                    "Y",
                    "Y",
                    "Y",
                    "Y",
                    "Y",
                    "Y",
                    "Y",
                    "Y",
                    "Y"
                ],
                "VISITDY": [
                    -28,
                    -3,
                    1,
                    15,
                    29,
                    null,
                    43,
                    57,
                    null,
                    null
                ],
                "SVSTDTC": [
                    "2012-11-23",
                    "2012-11-28",
                    "2012-11-30",
                    "2012-12-13",
                    "2012-12-26",
                    "2012-12-28",
                    "2013-01-10",
                    "2013-01-23",
                    "2013-02-14",
                    "2013-05-20"
                ],
                "SVENDTC": [
                    "2012-11-23",
                    "2012-11-28",
                    "2012-11-30",
                    "2012-12-13",
                    "2012-12-26",
                    "2012-12-28",
                    "2013-01-10",
                    "2013-01-23",
                    "2013-02-14",
                    "2013-05-20"
                ],
                "SVSTDY": [
                    -7,
                    -2,
                    1,
                    14,
                    27,
                    29,
                    42,
                    55,
                    77,
                    172
                ],
                "SVENDY": [
                    -7,
                    -2,
                    1,
                    14,
                    27,
                    29,
                    42,
                    55,
                    77,
                    172
                ],
                "SVUPDES": [
                    "",
                    "",
                    "",
                    "",
                    "",
                    "UNSCHEDULED LABS",
                    "",
                    "",
                    "",
                    ""
                ]
            }
        }
    ],
    "standard": {
        "product": "sdtmig",
        "version": "3-3"
    },
    "codelists": []
}