STUDYID,DOMAIN,USUBJID,LBSEQ,LBTESTCD,LBTEST,LBCAT,LBSCAT,LBORRES,LBORRESU,LBSTRESC,LBSTRESN,LBSTRESU,LBSTAT,LBREASND,LBDTC,LBDY,LBNOMDY,LBNOMLBL,LBTPT,LBTPTNUM
CDISCPILOT01,LB,CDISC001,1,ALB,Albumin,CHEMISTRY,SUB1,3.9,g/dL,39,39,g/L,,,2012-11-23T11:20,8,8,Day 8,AM1,1
CDISCPILOT01,LB,CDISC001,2,ALP,Alkaline Phosphatase,CHEMISTRY,SUB2,93,U/L,93,93,U/L,,,2012-11-23T11:20,8,8,Day 8,AM1,1
CDISCPILOT01,LB,CDISC002,2,ALP,Alkaline Phosphatase,CHEMISTRY,SUB2,93,U/L,93,93,U/L,,,2012-11-23T12:21,8,8,Day 8,AM2,2
CDISCPILOT01,LB,CDISC003,2,ALP,Alkaline Phosphatase,CHEMISTRY,SUB2,,,,,,NOT DONE,sample broken,2012-11-23T12:21,8,8,Day 8,AM2,2
