STUDYID,DOMAIN,USUBJID,LBSEQ,LBSPID,LBTESTCD,LBTEST,LBCAT,LBORRES,LBORRESU,LBORNRLO,LBORNRHI,LBSTRESC,LBSTRESN,LBSTRESU,LBSTNRLO,LBSTNRHI,LBNRIND,LBLOINC,LBSPEC,LBBLFL,EPOCH,VISITNUM,VISIT,LBDTC,LBDY
CDISC-TEST,LB,CDISC-TEST-001,1,46,ALB,Albumin,BIOCHEMISTRY,4.46,g/dL,,,4.46,4.46,g/dL,,,,1751-7,SERUM,,SCREENING,100,VISIT 1 (WEEK -2),2019-02-25,-15
CDISC-TEST,LB,CDISC-TEST-001,2,37,ALB,Albumin,BIOCHEMISTRY,4.31,g/dL,,,4.31,4.31,g/dL,,,,1751-7,SERUM,,TREATMENT,200,VISIT 2 (WEEK 0),2019-03-12,1
