{
  "rule": {
    "Authorities": [
      {
        "Organization": "CDISC",
        "Standards": [
          {
            "Name": "SENDIG",
            "References": [
              {
                "Citations": [
                  {
                    "Document": "IG v3.0",
                    "Section": "6.1.1",
                    "Cited_Guidance": "POOLID and USUBJID are mutually exclusive. When POOLID is used, USUBJID will be null and if a USUBJID is recorded, the POOLID will be null."
                  }
                ],
                "Origin": "SEND Conformance Rules",
                "Version": "5.0",
                "Rule_Identifier": {
                  "Id": "SEND132",
                  "Version": "1"
                }
              }
            ],
            "Version": "3.0"
          },
          {
            "Name": "SENDIG",
            "References": [
              {
                "Citations": [
                  {
                    "Document": "IG v3.1",
                    "Section": "8.5",
                    "Cited_Guidance": "POOLID and USUBJID are mutually exclusive. When POOLID is used, USUBJID will be null and if a USUBJID is recorded, the POOLID will be null."
                  }
                ],
                "Origin": "SEND Conformance Rules",
                "Version": "5.0",
                "Rule_Identifier": {
                  "Id": "SEND132",
                  "Version": "1"
                }
              }
            ],
            "Version": "3.1"
          },
          {
            "Name": "SENDIG",
            "References": [
              {
                "Citations": [
                  {
                    "Document": "IG v3.1.1",
                    "Section": "8.5",
                    "Cited_Guidance": "POOLID and USUBJID are mutually exclusive. When POOLID is used, USUBJID will be null and if a USUBJID is recorded, the POOLID will be null."
                  }
                ],
                "Origin": "SEND Conformance Rules",
                "Version": "5.0",
                "Rule_Identifier": {
                  "Id": "SEND132",
                  "Version": "1"
                }
              }
            ],
            "Version": "3.1.1"
          },
          {
            "Name": "SENDIG-DART",
            "References": [
              {
                "Citations": [
                  {
                    "Document": "IG v3.1",
                    "Section": "8.5",
                    "Cited_Guidance": "POOLID and USUBJID are mutually exclusive. When POOLID is used, USUBJID will be null and if a USUBJID is recorded, the POOLID will be null."
                  }
                ],
                "Origin": "SEND Conformance Rules",
                "Version": "5.0",
                "Rule_Identifier": {
                  "Id": "SEND132",
                  "Version": "1"
                }
              }
            ],
            "Version": "1.1"
          },
          {
            "Name": "SENDIG-DART",
            "References": [
              {
                "Citations": [
                  {
                    "Document": "IG v3.1",
                    "Section": "8.5",
                    "Cited_Guidance": "POOLID and USUBJID are mutually exclusive. When POOLID is used, USUBJID will be null and if a USUBJID is recorded, the POOLID will be null."
                  }
                ],
                "Origin": "SEND Conformance Rules",
                "Version": "5.0",
                "Rule_Identifier": {
                  "Id": "SEND132",
                  "Version": "1"
                }
              }
            ],
            "Version": "1.2"
          },
          {
            "Name": "SENDIG-GENETOX",
            "References": [
              {
                "Citations": [
                  {
                    "Document": "IG v3.1",
                    "Section": "8.5",
                    "Cited_Guidance": "POOLID and USUBJID are mutually exclusive. When POOLID is used, USUBJID will be null and if a USUBJID is recorded, the POOLID will be null."
                  }
                ],
                "Origin": "SEND Conformance Rules",
                "Version": "5.0",
                "Rule_Identifier": {
                  "Id": "SEND132",
                  "Version": "1"
                }
              }
            ],
            "Version": "1.0"
          }
        ]
      }
    ],
    "Check": {
      "all": [
        {
          "name": "POOLID",
          "operator": "non_empty"
        },
        {
          "name": "USUBJID",
          "operator": "non_empty"
        }
      ]
    },
    "Core": {
      "Id": "CDISC.SENDIG.132",
      "Status": "Draft",
      "Version": "1"
    },
    "Description": "Raise an error when both USUBJID and POOLID are populated",
    "Executability": "Fully Executable",
    "Outcome": {
      "Message": "When POOLID is populated, USUBJID may not be populated",
      "Output_Variables": [
        "USUBJID",
        "POOLID"
      ]
    },
    "Scope": {
      "Classes": {
        "Include": [
          "INTERVENTIONS",
          "FINDINGS"
        ]
      },
      "Domains": {
        "Include": [
          "ALL"
        ]
      }
    },
    "Sensitivity": "Record",
    "Rule_Type": "Record Data"
  },
  "datasets": [
    {
      "filename": "vs.xpt",
      "label": "Vital Signs",
      "domain": "VS",
      "variables": [
        {
          "name": "STUDYID",
          "label": "Study Identifier",
          "type": "Char",
          "length": 12
        },
        {
          "name": "DOMAIN",
          "label": "Domain Abbreviation",
          "type": "Char",
          "length": 2
        },
        {
          "name": "USUBJID",
          "label": "Unique Subject Identifier",
          "type": "Char",
          "length": 8
        },
        {
          "name": "POOLID",
          "length": null
        },
        {
          "name": "VSSEQ",
          "label": "Sequence Number",
          "type": "Num",
          "length": 8
        },
        {
          "name": "VSTESTCD",
          "label": "Vital Signs Test Short Name",
          "type": "Char",
          "length": 6
        },
        {
          "name": "VSTEST",
          "label": "Vital Signs Test Name",
          "type": "Char",
          "length": 24
        },
        {
          "name": "VSPOS",
          "label": "Vital Signs Position of Subject",
          "type": "Char",
          "length": 8
        },
        {
          "name": "VSORRES",
          "label": "Result or Finding in Original Units",
          "type": "Char",
          "length": 8
        },
        {
          "name": "VSORRESU",
          "label": "Original Units",
          "type": "Char",
          "length": 9
        },
        {
          "name": "VSSTRESC",
          "label": "Character Result/Finding in Std Format",
          "type": "Char",
          "length": 200
        },
        {
          "name": "VSSTRESN",
          "label": "Numeric Result/Finding in Standard Units",
          "type": "Num",
          "length": 8
        },
        {
          "name": "VSSTRESU",
          "label": "Standard Units",
          "type": "Char",
          "length": 9
        },
        {
          "name": "VSSTAT",
          "label": "Completion Status",
          "type": "Char",
          "length": 8
        },
        {
          "name": "VSLOC",
          "label": "Location of Vital Signs Measurement",
          "type": "Char",
          "length": 11
        },
        {
          "name": "VSLOBXFL",
          "label": "Last Observation Before Exposure Flag",
          "type": "Char",
          "length": 1
        },
        {
          "name": "VSREPNUM",
          "label": "Repetition Number",
          "type": "Num",
          "length": 8
        },
        {
          "name": "VISITNUM",
          "label": "Visit Number",
          "type": "Num",
          "length": 8
        },
        {
          "name": "VISIT",
          "label": "Visit Name",
          "type": "Char",
          "length": 200
        },
        {
          "name": "EPOCH",
          "label": "Epoch",
          "type": "Char",
          "length": 9
        },
        {
          "name": "VSDTC",
          "label": "Date/Time of Measurements",
          "type": "Char",
          "length": 10
        },
        {
          "name": "VSDY",
          "label": "Study Day of Vital Signs",
          "type": "Num",
          "length": 8
        },
        {
          "name": "VSTPT",
          "label": "Planned Time Point Name",
          "type": "Char",
          "length": 200
        },
        {
          "name": "VSTPTNUM",
          "label": "Planned Time Point Number",
          "type": "Num",
          "length": 8
        }
      ],
      "records": {
        "STUDYID": [
          "CDISCPILOT01",
          "CDISCPILOT01",
          "CDISCPILOT01",
          "CDISCPILOT01",
          "CDISCPILOT01",
          "CDISCPILOT01"
        ],
        "DOMAIN": [
          "VS",
          "VS",
          "VS",
          "VS",
          "VS",
          "VS"
        ],
        "USUBJID": [
          "CDISC001",
          "CDISC001",
          "CDISC001",
          "",
          "CDISC001",
          "CDISC001"
        ],
        "POOLID": [
          null,
          null,
          null,
          "POOL1",
          null,
          null
        ],
        "VSSEQ": [
          1,
          2,
          3,
          4,
          6,
          7
        ],
        "VSTESTCD": [
          "DIABP",
          "DIABP",
          "DIABP",
          "DIABP",
          "DIABP",
          "DIABP"
        ],
        "VSTEST": [
          "Diastolic Blood Pressure",
          "Diastolic Blood Pressure",
          "Diastolic Blood Pressure",
          "Diastolic Blood Pressure",
          "Diastolic Blood Pressure",
          "Diastolic Blood Pressure"
        ],
        "VSPOS": [
          "STANDING",
          "STANDING",
          "STANDING",
          "STANDING",
          "SUPINE",
          "STANDING"
        ],
        "VSORRES": [
          "71",
          "71",
          "83",
          "79",
          "77",
          "71"
        ],
        "VSORRESU": [
          "mmHg",
          "mmHg",
          "mmHg",
          "mmHg",
          "mmHg",
          "mmHg"
        ],
        "VSSTRESC": [
          "71",
          "71",
          "83",
          "79",
          "77",
          "71"
        ],
        "VSSTRESN": [
          71,
          71,
          83,
          79,
          77,
          71
        ],
        "VSSTRESU": [
          "mmHg",
          "mmHg",
          "mmHg",
          "mmHg",
          "mmHg",
          "mmHg"
        ],
        "VSSTAT": [
          "",
          "",
          "",
          "",
          "",
          ""
        ],
        "VSLOC": [
          "",
          "",
          "",
          "",
          "",
          ""
        ],
        "VSLOBXFL": [
          "",
          "",
          "Y",
          "",
          "",
          ""
        ],
        "VSREPNUM": [
          null,
          null,
          null,
          null,
          1,
          2
        ],
        "VISITNUM": [
          1,
          2,
          3,
          4,
          null,
          null
        ],
        "VISIT": [
          "SCREENING 1",
          "SCREENING 2",
          "BASELINE",
          "WEEK 2",
          "WEEK 6",
          "WEEK 6"
        ],
        "EPOCH": [
          "SCREENING",
          "SCREENING",
          "SCREENING",
          "TREATMENT",
          "TREATMENT",
          "TREATMENT"
        ],
        "VSDTC": [
          "2012-11-23",
          "2012-11-28",
          "2012-11-30",
          "2012-12-13",
          "2013-01-10",
          "2013-01-10"
        ],
        "VSDY": [
          -7,
          -2,
          1,
          14,
          42,
          42
        ],
        "VSTPT": [
          "",
          "",
          "PREDOSE",
          "PREDOSE",
          "5MIN POSTDOSE",
          "5MIN POSTDOSE"
        ],
        "VSTPTNUM": [
          null,
          null,
          -1,
          -1,
          -1,
          5
        ]
      }
    }
  ],
  "codelists": []
}