{
  "rule": {
    "Authorities": [
      {
        "Organization": "CDISC",
        "Standards": [
          {
            "Name": "SENDIG",
            "References": [
              {
                "Citations": [
                  {
                    "Document": "IG v3.0",
                    "Section": "5.5.5.1",
                    "Cited_Guidance": "To identify a subject uniquely across a submission, a unique identifier (USUBJID) should be signed and included in all subject-related datasets in the submission."
                  }
                ],
                "Origin": "SEND Conformance Rules",
                "Version": "5.0",
                "Rule_Identifier": {
                  "Id": "SEND109",
                  "Version": "1"
                }
              }
            ],
            "Version": "3.0"
          },
          {
            "Name": "SENDIG",
            "References": [
              {
                "Citations": [
                  {
                    "Document": "IG v3.1",
                    "Section": "5.5.5.1",
                    "Cited_Guidance": "To identify a subject uniquely across a submission, a unique identifier (USUBJID) should be signed and included in all subject-related datasets in the submission."
                  }
                ],
                "Origin": "SEND Conformance Rules",
                "Version": "5.0",
                "Rule_Identifier": {
                  "Id": "SEND109",
                  "Version": "1"
                }
              }
            ],
            "Version": "3.1"
          },
          {
            "Name": "SENDIG",
            "References": [
              {
                "Citations": [
                  {
                    "Document": "IG v3.1.1",
                    "Section": "5.5.5.1",
                    "Cited_Guidance": "To identify a subject uniquely across a submission, a unique identifier (USUBJID) should be signed and included in all subject-related datasets in the submission."
                  }
                ],
                "Origin": "SEND Conformance Rules",
                "Version": "5.0",
                "Rule_Identifier": {
                  "Id": "SEND109",
                  "Version": "1"
                }
              }
            ],
            "Version": "3.1.1"
          },
          {
            "Name": "SENDIG-DART",
            "References": [
              {
                "Citations": [
                  {
                    "Document": "IG v3.1",
                    "Section": "5.5.5.1",
                    "Cited_Guidance": "To identify a subject uniquely across a submission, a unique identifier (USUBJID) should be signed and included in all subject-related datasets in the submission."
                  }
                ],
                "Origin": "SEND Conformance Rules",
                "Version": "5.0",
                "Rule_Identifier": {
                  "Id": "SEND109",
                  "Version": "1"
                }
              }
            ],
            "Version": "1.1"
          },
          {
            "Name": "SENDIG-DART",
            "References": [
              {
                "Citations": [
                  {
                    "Document": "IG v3.1.1",
                    "Section": "5.5.5.1",
                    "Cited_Guidance": "To identify a subject uniquely across a submission, a unique identifier (USUBJID) should be signed and included in all subject-related datasets in the submission."
                  }
                ],
                "Origin": "SEND Conformance Rules",
                "Version": "5.0",
                "Rule_Identifier": {
                  "Id": "SEND109",
                  "Version": "1"
                }
              }
            ],
            "Version": "1.2"
          },
          {
            "Name": "SENDIG-GENETOX",
            "References": [
              {
                "Citations": [
                  {
                    "Document": "IG v3.1.1",
                    "Section": "5.5.5.1",
                    "Cited_Guidance": "To identify a subject uniquely across a submission, a unique identifier (USUBJID) should be signed and included in all subject-related datasets in the submission."
                  }
                ],
                "Origin": "SEND Conformance Rules",
                "Version": "5.0",
                "Rule_Identifier": {
                  "Id": "SEND109",
                  "Version": "1"
                }
              }
            ],
            "Version": "1.0"
          }
        ]
      }
    ],
    "Check": {
      "all": [
        {
          "name": "USUBJID",
          "operator": "non_empty"
        },
        {
          "name": "USUBJID",
          "operator": "is_not_contained_by",
          "value": "$dm_usubjid"
        }
      ]
    },
    "Core": {
      "Id": "CDISC.SENDIG.109",
      "Status": "Draft",
      "Version": "1"
    },
    "Description": "Trigger error when USUBJID is not present in DM in DM.USUBJID",
    "Executability": "Fully Executable",
    "Operations": [
      {
        "domain": "DM",
        "id": "$dm_usubjid",
        "name": "USUBJID",
        "operator": "distinct"
      }
    ],
    "Outcome": {
      "Message": "USUBJID is not found in DM.USUBJID"
    },
    "Scope": {
      "Classes": {
        "Include": [
          "ALL"
        ]
      },
      "Domains": {
        "Include": [
          "ALL"
        ]
      }
    },
    "Sensitivity": "Record",
    "Rule_Type": "Record Data"
  },
  "datasets": [
    {
      "filename": "ae.xpt",
      "label": "Adverse Events",
      "domain": "AE",
      "variables": [
        {
          "name": "STUDYID",
          "label": "Study Identifier",
          "type": "Char",
          "length": 50
        },
        {
          "name": "DOMAIN",
          "label": "Domain Abbreviation",
          "type": "Char",
          "length": 50
        },
        {
          "name": "USUBJID",
          "label": "Unique Subject Identifier",
          "type": "Char",
          "length": 50
        },
        {
          "name": "AESEQ",
          "label": "Sequence Number",
          "type": "Num",
          "length": 8
        },
        {
          "name": "AETERM",
          "label": "Reported Term for the Adverse Event",
          "type": "Char",
          "length": 50
        },
        {
          "name": "AEMODIFY",
          "label": "Modified Reported Term",
          "type": "Char",
          "length": 50
        },
        {
          "name": "AEDECOD",
          "label": "Dictionary-Derived Term",
          "type": "Char",
          "length": 50
        },
        {
          "name": "AEBODSYS",
          "label": "Body System or Organ Class",
          "type": "Char",
          "length": 50
        },
        {
          "name": "AESEV",
          "label": "Severity/Intensity",
          "type": "Char",
          "length": 50
        },
        {
          "name": "AESER",
          "label": "Serious Event",
          "type": "Char",
          "length": 50
        },
        {
          "name": "AEACN",
          "label": "Action Taken with Study Treatment",
          "type": "Char",
          "length": 50
        },
        {
          "name": "AEREL",
          "label": "Causality",
          "type": "Char",
          "length": 50
        },
        {
          "name": "AEOUT",
          "label": "Outcome of Adverse Event",
          "type": "Char",
          "length": 50
        },
        {
          "name": "AESCONG",
          "label": "Congenital Anomaly or Birth Defect",
          "type": "Char",
          "length": 50
        },
        {
          "name": "AESDISAB",
          "label": "Persist or Signif Disability/Incapacity",
          "type": "Char",
          "length": 50
        },
        {
          "name": "AESDTH",
          "label": "Results in Death",
          "type": "Char",
          "length": 50
        },
        {
          "name": "AESHOSP",
          "label": "Requires or Prolongs Hospitalization",
          "type": "Char",
          "length": 50
        },
        {
          "name": "AESLIFE",
          "label": "Is Life Threatening",
          "type": "Char",
          "length": 50
        },
        {
          "name": "EPOCH",
          "label": "Epoch",
          "type": "Char",
          "length": 50
        },
        {
          "name": "AESTDTC",
          "label": "Start Date/Time of Adverse Event",
          "type": "Char",
          "length": 50
        },
        {
          "name": "AEENDTC",
          "label": "End Date/Time of Adverse Event",
          "type": "Char",
          "length": 50
        },
        {
          "name": "AESTDY",
          "label": "Study Day of Start of Adverse Event",
          "type": "Num",
          "length": 8
        },
        {
          "name": "AEENDY",
          "label": "Study Day of End of Adverse Event",
          "type": "Num",
          "length": 8
        },
        {
          "name": "AEENRF",
          "label": "End Relative to Reference Period",
          "type": "Char",
          "length": 50
        }
      ],
      "records": {
        "STUDYID": [
          "ABC123",
          "ABC123",
          "ABC123"
        ],
        "DOMAIN": [
          "AE",
          "AE",
          "AE"
        ],
        "USUBJID": [
          "CDISC-TEST-001",
          "CDISC-TEST-002",
          "CDISC-TEST-003"
        ],
        "AESEQ": [
          1,
          2,
          3
        ],
        "AETERM": [
          "POUNDING HEADACHE",
          "BACK PAIN FOR 6 HOURS",
          "PULMONARY EMBOLISM"
        ],
        "AEMODIFY": [
          "HEADACHE",
          "BACK PAIN",
          ""
        ],
        "AEDECOD": [
          "Headache",
          "Back pain",
          "Pulmonary embolism"
        ],
        "AEBODSYS": [
          "Nervous system disorders",
          "Musculoskeletal and connective tissue disorders",
          "Vascular disorders"
        ],
        "AESEV": [
          "SEVERE",
          "MODERATE",
          "MODERATE"
        ],
        "AESER": [
          "N",
          "N",
          "Y"
        ],
        "AEACN": [
          "NOT APPLICABLE",
          "DOSE REDUCED",
          "DOSE REDUCED"
        ],
        "AEREL": [
          "DEFINITELY NOT RELATED",
          "PROBABLY RELATED",
          "PROBABLY NOT RELATED"
        ],
        "AEOUT": [
          "RECOVERED/RESOLVED",
          "RECOVERED/RESOLVED",
          "RECOVERING/RESOLVING"
        ],
        "AESCONG": [
          "",
          "",
          ""
        ],
        "AESDISAB": [
          "",
          "",
          ""
        ],
        "AESDTH": [
          "",
          "",
          ""
        ],
        "AESHOSP": [
          "",
          "",
          "Y"
        ],
        "AESLIFE": [
          "",
          "",
          "Y"
        ],
        "EPOCH": [
          "SCREENING",
          "TREATMENT",
          "TREATMENT"
        ],
        "AESTDTC": [
          "2005-10-12",
          "2005-10-13T13:05",
          "2005-10-21"
        ],
        "AEENDTC": [
          "2005-10-12",
          "2005-10-13T19:00",
          ""
        ],
        "AESTDY": [
          -1,
          1,
          9
        ],
        "AEENDY": [
          -1,
          1,
          null
        ],
        "AEENRF": [
          "",
          "",
          "AFTER"
        ]
      }
    },
    {
      "filename": "dm.xpt",
      "label": "Demographics",
      "domain": "DM",
      "variables": [
        {
          "name": "STUDYID",
          "label": "Study Identifier",
          "type": "Char",
          "length": 10
        },
        {
          "name": "DOMAIN",
          "label": "Domain Abbreviation",
          "type": "Char",
          "length": 2
        },
        {
          "name": "USUBJID",
          "label": "Unique Subject Identifier",
          "type": "Char",
          "length": 14
        },
        {
          "name": "SUBJID",
          "label": "Subject Identifier for the Study",
          "type": "Char",
          "length": 3
        },
        {
          "name": "RFSTDTC",
          "label": "Subject Reference Start Date/Time",
          "type": "Char",
          "length": 10
        },
        {
          "name": "RFENDTC",
          "label": "Subject Reference End Date/Time",
          "type": "Char",
          "length": 10
        },
        {
          "name": "RFXSTDTC",
          "label": "Date/Time of First Study Treatment",
          "type": "Char",
          "length": 10
        },
        {
          "name": "RFXENDTC",
          "label": "Date/Time of Last Study Treatment",
          "type": "Char",
          "length": 10
        },
        {
          "name": "RFICDTC",
          "label": "Date/Time of Informed Consent",
          "type": "Char",
          "length": 10
        },
        {
          "name": "RFPENDTC",
          "label": "Date/Time of End of Participation",
          "type": "Char",
          "length": 10
        },
        {
          "name": "DTHDTC",
          "label": "Date/Time of Death",
          "type": "Char",
          "length": 1
        },
        {
          "name": "DTHFL",
          "label": "Subject Death Flag",
          "type": "Char",
          "length": 1
        },
        {
          "name": "SITEID",
          "label": "Study Site Identifier",
          "type": "Char",
          "length": 3
        },
        {
          "name": "AGE",
          "label": "Age",
          "type": "Num",
          "length": 8
        },
        {
          "name": "AGEU",
          "label": "Age Units",
          "type": "Char",
          "length": 5
        },
        {
          "name": "SEX",
          "label": "Sex",
          "type": "Char",
          "length": 1
        },
        {
          "name": "RACE",
          "label": "Race",
          "type": "Char",
          "length": 1
        },
        {
          "name": "ARMCD",
          "label": "Planned Arm Code",
          "type": "Char",
          "length": 1
        },
        {
          "name": "ARM",
          "label": "Description of Planned Arm",
          "type": "Char",
          "length": 13
        },
        {
          "name": "ACTARMCD",
          "label": "Actual Arm Code",
          "type": "Char",
          "length": 1
        },
        {
          "name": "ACTARM",
          "label": "Description of Actual Arm",
          "type": "Char",
          "length": 13
        },
        {
          "name": "COUNTRY",
          "label": "Country",
          "type": "Char",
          "length": 3
        }
      ],
      "records": {
        "STUDYID": [
          "CDISC-TEST",
          "CDISC-TEST",
          "CDISC-TEST",
          "CDISC-TEST"
        ],
        "DOMAIN": [
          "DM",
          "DM",
          "DM",
          "DM"
        ],
        "USUBJID": [
          "CDISC-TEST-001",
          "CDISC-TEST-002",
          "CDISC-TEST-003",
          "CDISC-TEST-004"
        ],
        "SUBJID": [
          "001",
          "002",
          "003",
          "004"
        ],
        "RFSTDTC": [
          "2019-03-12",
          "2019-01-30",
          "2019-01-26",
          "2019-02-16"
        ],
        "RFENDTC": [
          "2019-09-10",
          "2019-07-31",
          "2019-07-27",
          "2019-08-17"
        ],
        "RFXSTDTC": [
          "2019-03-12",
          "2019-01-30",
          "2019-01-26",
          "2019-02-16"
        ],
        "RFXENDTC": [
          "2019-09-10",
          "2019-07-31",
          "2019-07-27",
          "2019-08-17"
        ],
        "RFICDTC": [
          "2019-02-25",
          "2019-01-15",
          "2019-01-11",
          "2019-02-01"
        ],
        "RFPENDTC": [
          "2019-10-10",
          "2019-08-30",
          "2019-08-26",
          "2019-09-16"
        ],
        "DTHDTC": [
          "",
          "",
          "",
          ""
        ],
        "DTHFL": [
          "",
          "",
          "",
          ""
        ],
        "SITEID": [
          "102",
          "103",
          "102",
          "102"
        ],
        "AGE": [
          26,
          34,
          57,
          31
        ],
        "AGEU": [
          "YEARS",
          "YEARS",
          "YEARS",
          "YEARS"
        ],
        "SEX": [
          "F",
          "M",
          "F",
          "F"
        ],
        "RACE": [
          "",
          "",
          "",
          ""
        ],
        "ARMCD": [
          "A",
          "A",
          "B",
          "A"
        ],
        "ARM": [
          "HUMAN INSULIN",
          "HUMAN INSULIN",
          "METFORMIN",
          "HUMAN INSULIN"
        ],
        "ACTARMCD": [
          "A",
          "A",
          "B",
          "A"
        ],
        "ACTARM": [
          "HUMAN INSULIN",
          "HUMAN INSULIN",
          "METFORMIN",
          "HUMAN INSULIN"
        ],
        "COUNTRY": [
          "FRA",
          "JPN",
          "FRA",
          "FRA"
        ]
      }
    },
    {
      "filename": "dd.xpt",
      "label": "Death Details",
      "domain": "DD",
      "variables": [
        {
          "name": "STUDYID",
          "label": "Study Identifier",
          "type": "Char",
          "length": 12
        },
        {
          "name": "DOMAIN",
          "label": "Domain Abbreviation",
          "type": "Char",
          "length": 2
        },
        {
          "name": "USUBJID",
          "label": "Unique Subject Identifier",
          "type": "Char",
          "length": 8
        },
        {
          "name": "DDSEQ",
          "label": "Sequence Number",
          "type": "Num",
          "length": 8
        },
        {
          "name": "DDTESTCD",
          "label": "Test Short Name",
          "type": "Char",
          "length": 6
        },
        {
          "name": "DDTEST",
          "label": "Test Name",
          "type": "Char",
          "length": 24
        },
        {
          "name": "DDORRES",
          "label": "Result or Findings as Collected",
          "type": "Char",
          "length": 24
        },
        {
          "name": "DDSTRESC",
          "label": "Standardized Result in Character Format",
          "type": "Char",
          "length": 24
        }
      ],
      "records": {
        "STUDYID": [
          "CDISCPILOT01",
          "CDISCPILOT01",
          "CDISCPILOT01",
          "CDISCPILOT01",
          "CDISCPILOT01"
        ],
        "DOMAIN": [
          "DD",
          "DD",
          "DD",
          "DD",
          "DD"
        ],
        "USUBJID": [
          "CDISC-TEST-001",
          "CDISC-TEST-001",
          "CDISC-TEST-002",
          "CDISC-TEST-003",
          "CDISC-TEST-004"
        ],
        "DDSEQ": [
          1,
          2,
          1,
          1,
          1
        ],
        "DDTESTCD": [
          "DEATHD",
          "DEATHD",
          "DEATHD",
          "DEATHD",
          "DEATHD"
        ],
        "DDTEST": [
          "Death Diagnosis",
          "Death Diagnosis",
          "Death Diagnosis",
          "Death Diagnosis",
          "Death Diagnosis"
        ],
        "DDORRES": [
          "cancer",
          "unknown",
          "cancer",
          "flu",
          "cancer"
        ],
        "DDSTRESC": [
          "CANCER",
          "UNKNOWN",
          "CANCER",
          "FLU",
          "CANCER"
        ]
      }
    },
    {
      "filename": "ds.xpt",
      "label": "Disposition",
      "domain": "DS",
      "variables": [
        {
          "name": "STUDYID",
          "label": "Study Identifier",
          "type": "Char",
          "length": 12
        },
        {
          "name": "DOMAIN",
          "label": "Domain Abbreviation",
          "type": "Char",
          "length": 2
        },
        {
          "name": "USUBJID",
          "label": "Unique Subject Identifier",
          "type": "Char",
          "length": 20
        },
        {
          "name": "DSSEQ",
          "label": "Sequence Number",
          "type": "Num",
          "length": 8
        },
        {
          "name": "DSTERM",
          "label": "Reported Term for the Disposition Event",
          "type": "Char",
          "length": 200
        },
        {
          "name": "DSDECOD",
          "label": "Standardized Disposition Term",
          "type": "Char",
          "length": 50
        },
        {
          "name": "DSCAT",
          "label": "Category for Disposition Event",
          "type": "Char",
          "length": 50
        },
        {
          "name": "DSSTDTC",
          "label": "Start Date/Time of Disposition Event",
          "type": "Char",
          "length": 50
        },
        {
          "name": "DSUSCHFL",
          "label": "Unscheduled Flag",
          "type": "Char",
          "length": 1
        }
      ],
      "records": {
        "STUDYID": [
          "CDISCPILOT01",
          "CDISCPILOT01",
          "CDISCPILOT01",
          "CDISCPILOT01"
        ],
        "DOMAIN": [
          "DS",
          "DS",
          "DS",
          "DS"
        ],
        "USUBJID": [
          "CDISC-TEST-001",
          "CDISC-TEST-002",
          "CDISC-TEST-003",
          "CDISC-TEST-004"
        ],
        "DSSEQ": [
          1,
          1,
          1,
          1
        ],
        "DSTERM": [
          "accidental death",
          "accidental death",
          "accidental death",
          "accidental death"
        ],
        "DSDECOD": [
          "ACCIDENTAL DEATH ",
          "ACCIDENTAL DEATH ",
          "ACCIDENTAL DEATH ",
          "ACCIDENTAL DEATH "
        ],
        "DSCAT": [
          "PROTOCOL MILESTONE",
          "PROTOCOL MILESTONE",
          "PROTOCOL MILESTONE",
          "PROTOCOL MILESTONE"
        ],
        "DSSTDTC": [
          "2018-03-06",
          "2018-04-17",
          "2018-04-17",
          "2018-04-17"
        ],
        "DSUSCHFL": [
          "Y",
          "Y",
          "Y",
          "Y"
        ]
      }
    },
    {
      "filename": "om.xpt",
      "label": "Organ Measurements",
      "domain": "OM",
      "variables": [
        {
          "name": "STUDYID",
          "label": "Study Identifier",
          "type": "Char",
          "length": 10
        },
        {
          "name": "DOMAIN",
          "label": "Domain Abbreviation",
          "type": "Char",
          "length": 2
        },
        {
          "name": "USUBJID",
          "label": "Unique Subject Identifier",
          "type": "Char",
          "length": 14
        },
        {
          "name": "OMSEQ",
          "label": "Sequence Number",
          "type": "Num",
          "length": 8
        },
        {
          "name": "OMTESTCD",
          "label": "Test Short Name ",
          "type": "Char",
          "length": 8
        },
        {
          "name": "OMTEST",
          "label": "Test Name ",
          "type": "Char",
          "length": 25
        },
        {
          "name": "OMORRES",
          "label": "Result or Findings as Collected",
          "type": "Char",
          "length": 6
        },
        {
          "name": "OMORRESU",
          "label": "Unit of the Original Result ",
          "type": "Char",
          "length": 6
        },
        {
          "name": "OMSTRESC",
          "label": "Standardized Result in Character Format",
          "type": "Char",
          "length": 6
        },
        {
          "name": "OMSTRESN",
          "label": "Standardized Result in Numeric Format",
          "type": "Num",
          "length": 6
        },
        {
          "name": "OMSTRESU",
          "label": "Unit of the Standardized Result",
          "type": "Char",
          "length": 6
        },
        {
          "name": "OMSTAT",
          "label": "Completion Status",
          "type": "Char",
          "length": 8
        }
      ],
      "records": {
        "STUDYID": [
          "CDISC-TEST",
          "CDISC-TEST",
          "CDISC-TEST",
          "CDISC-TEST",
          "MOCK",
          "MOCK",
          "MOCK",
          "MOCK",
          "MOCK",
          "MOCK"
        ],
        "DOMAIN": [
          "OM",
          "OM",
          "OM",
          "OM",
          "OM",
          "OM",
          "OM",
          "OM",
          "OM",
          "OM"
        ],
        "USUBJID": [
          "CDISC-TEST-001",
          "CDISC-TEST-001",
          "CDISC-TEST-001",
          "CDISC-TEST-002",
          "CDISC-TEST-001",
          "CDISC-TEST-002",
          "CDISC-TEST-003",
          "CDISC-TEST-001",
          "CDISC-TEST-002",
          "CDISC-TEST-003"
        ],
        "OMSEQ": [
          1,
          2,
          3,
          1,
          10,
          1,
          12,
          16,
          17,
          18
        ],
        "OMTESTCD": [
          "WEIGHT",
          "WEIGHT",
          "OWHT",
          "OWHT",
          "OWBW",
          "OWBW",
          "OWBW",
          "OWBR",
          "OWBR",
          "OWBR"
        ],
        "OMTEST": [
          "Weight",
          "Weight",
          "Organ to Heart Weight Ratio",
          "Organ to Heart Weight Ratio",
          "Organ to Body Weight Ratio",
          "Organ to Body Weight Ratio",
          "Organ to Body Weight Ratio",
          "Organ to Brain Weight Ratio",
          "Organ to Brain Weight Ratio",
          "Organ to Brain Weight Ratio"
        ],
        "OMORRES": [
          "10.0",
          "10.1",
          "20",
          "21",
          "",
          "0.03",
          "0.033",
          "0.909",
          "0.961",
          "1"
        ],
        "OMORRESU": [
          "g",
          "g",
          "",
          "",
          "",
          "",
          "",
          "",
          "",
          ""
        ],
        "OMSTRESC": [
          "10.0",
          "10.1",
          "0.2",
          "0.21",
          "",
          "3",
          "3.3",
          "0.909",
          "0.961",
          "1"
        ],
        "OMSTRESN": [
          10,
          10.1,
          0.2,
          0.21,
          null,
          3,
          3.3,
          0.909,
          0.961,
          1
        ],
        "OMSTRESU": [
          "g",
          "g",
          "",
          "",
          "",
          "%",
          "%",
          "",
          "",
          ""
        ],
        "OMSTAT": [
          "",
          "",
          "",
          "",
          "NOT DONE",
          "",
          "",
          "",
          "",
          ""
        ]
      }
    },
    {
      "filename": "ta.xpt",
      "label": "Trial Arms",
      "domain": "TA",
      "variables": [
        {
          "name": "STUDYID",
          "label": "Study Identifier",
          "type": "Char",
          "length": 12
        },
        {
          "name": "DOMAIN",
          "label": "Domain Abbreviation",
          "type": "Char",
          "length": 2
        },
        {
          "name": "ARMCD",
          "label": "Planned Arm Code",
          "type": "Char",
          "length": 7
        },
        {
          "name": "ARM",
          "label": "Description of Planned Arm",
          "type": "Char",
          "length": 26
        },
        {
          "name": "TAETORD",
          "label": "Order of Element within Arm",
          "type": "Char",
          "length": 200
        },
        {
          "name": "ETCD",
          "label": "Element Code",
          "type": "Char",
          "length": 200
        },
        {
          "name": "ELEMENT",
          "label": "Description of Element",
          "type": "Char",
          "length": 50
        }
      ],
      "records": {
        "STUDYID": [
          "CDISCPILOT01",
          "CDISCPILOT01",
          "CDISCPILOT01",
          "CDISCPILOT01"
        ],
        "DOMAIN": [
          "TA",
          "TA",
          "TA",
          "TA"
        ],
        "ARMCD": [
          "ACTIVE",
          "ACTIVE",
          "PLACEBO",
          "PLACEBO"
        ],
        "ARM": [
          "Active Arm",
          "Active Arm",
          "Placebo Arm",
          "Placebo Arm"
        ],
        "TAETORD": [
          "1",
          "2",
          "1",
          "2"
        ],
        "ETCD": [
          "SCREEN",
          "TREAT",
          "SCREEN",
          "PLACTR"
        ],
        "ELEMENT": [
          "Screening",
          "Treatment",
          "Screening",
          "Placebo"
        ]
      }
    },
    {
      "filename": "supplb.xpt",
      "label": "Supplemental Qualifiers for LB",
      "domain": "LB",
      "variables": [
        {
          "name": "STUDYID",
          "label": "Study Identifier",
          "type": "Char",
          "length": 10
        },
        {
          "name": "RDOMAIN",
          "label": "Related Domain Abbreviation",
          "type": "Char",
          "length": 2
        },
        {
          "name": "USUBJID",
          "label": "Unique Subject Identifier",
          "type": "Char",
          "length": 14
        },
        {
          "name": "IDVAR",
          "label": "Identifying Variable",
          "type": "Char",
          "length": 6
        },
        {
          "name": "IDVARVAL",
          "label": "Identifying Variable Value",
          "type": "Char",
          "length": 4
        },
        {
          "name": "QNAM",
          "label": "Qualifier Variable Name",
          "type": "Char",
          "length": 11
        },
        {
          "name": "QLABEL",
          "label": "Qualifier Variable Label",
          "type": "Char",
          "length": 49
        },
        {
          "name": "QVAL",
          "label": "Data Value",
          "type": "Char",
          "length": 1
        },
        {
          "name": "QORIG",
          "label": "Origin",
          "type": "Char",
          "length": 8
        },
        {
          "name": "QEVAL",
          "label": "Evaluator",
          "type": "Char",
          "length": 22
        }
      ],
      "records": {
        "STUDYID": [
          "CDISC-TEST",
          "CDISC-TEST",
          "CDISC-TEST",
          "CDISC-TEST",
          "CDISC-TEST",
          "CDISC-TEST",
          "CDISC-TEST",
          "CDISC-TEST",
          "CDISC-TEST",
          "CDISC-TEST"
        ],
        "RDOMAIN": [
          "LB",
          "LB",
          "LB",
          "LB",
          "LB",
          "LB",
          "LB",
          "LB",
          "LB",
          "LB"
        ],
        "USUBJID": [
          "CDISC-TEST-001",
          "CDISC-TEST-001",
          "CDISC-TEST-001",
          "CDISC-TEST-001",
          "CDISC-TEST-001",
          "CDISC-TEST-002",
          "CDISC-TEST-002",
          "CDISC-TEST-002",
          "CDISC-TEST-002",
          "CDISC-TEST-002"
        ],
        "IDVAR": [
          "LBSEQ",
          "LBSEQ",
          "LBSEQ",
          "LBSEQ",
          "LBSEQ",
          "LBSEQ",
          "LBSEQ",
          "LBSEQ",
          "LBSEQ",
          "LBSEQ"
        ],
        "IDVARVAL": [
          "1",
          "10",
          "11",
          "12",
          "13",
          "1",
          "2",
          "3",
          "4",
          "5"
        ],
        "QNAM": [
          "BIOSIG1",
          "BIOSIG2",
          "BIOSIG3",
          "BIOSIG4",
          "BIOSIG5",
          "BIOSIG1",
          "BIOSIG2",
          "BIOSIG3",
          "BIOSIG4",
          "BIOSIG5"
        ],
        "QLABEL": [
          "Biological Significance 1",
          "Biological Significance 2",
          "Biological Significance 3",
          "Biological Significance 4",
          "Biological Significance 5",
          "Biological Significance 1",
          "Biological Significance 2",
          "Biological Significance 3",
          "Biological Significance 4",
          "Biological Significance 5"
        ],
        "QVAL": [
          "N",
          "Y",
          "Y",
          "N",
          "N",
          "Y",
          "Y",
          "Y",
          "Y",
          "D"
        ],
        "QORIG": [
          "Assigned",
          "Assigned",
          "Assigned",
          "Assigned",
          "Assigned",
          "Assigned",
          "Assigned",
          "Assigned",
          "Assigned",
          "Assigned"
        ],
        "QEVAL": [
          "CLINICAL STUDY SPONSOR",
          "CLINICAL STUDY SPONSOR",
          "CLINICAL STUDY SPONSOR",
          "CLINICAL STUDY SPONSOR",
          "CLINICAL STUDY SPONSOR",
          "CLINICAL STUDY SPONSOR",
          "CLINICAL STUDY SPONSOR",
          "CLINICAL STUDY SPONSOR",
          "CLINICAL STUDY SPONSOR",
          "CLINICAL STUDY SPONSOR"
        ]
      }
    }
  ],
  "standard": {
    "product": "sendig",
    "version": "3-1"
  },
  "codelists": []
}