dataset,variable,label,type,length
relrec.xpt,STUDYID,Study Identifier,Char,50
relrec.xpt,RDOMAIN,Related Domain Abbreviation,Char,50
relrec.xpt,USUBJID,Unique Subject Identifier,Char,50
relrec.xpt,IDVAR,Identifying Variable,Char,50
relrec.xpt,IDVARVAL,Identifying Variable Value,Char,50
relrec.xpt,RELTYPE,Relationship Type,Char,50
relrec.xpt,RELID,Relationship Identifier,Char,50
