STUDYID,DOMAIN,USUBJID,DSSEQ,DSTERM,DSDECOD,DSCAT,DSSCAT,EPOCH,DSDTC,DSSTDTC,DSENDTC,DSBODSYS
CDISCCORE01,DS,015246-300-0004-00002,5,ADVERSE EVENT,LAST CONTACT,DISPOSITION EVENT,,TREATMENT,2018-09-21,2018-09-04,2018-09-21,
CDISCCORE01,DS,015246-300-0004-00002,3,RANDOMIZED,RANDOMIZED,PROTOCOL MILESTONE,,,2018-05-09,2018-05-06 00:00:00,2018-05-09,
CDISCCORE01,DS,015246-300-0004-00002,3,RANDOMIZED,RANDOMIZED,PROTOCOL MILESTONE,,,2018-05-08,2018-05-06 00:00:00,2018-05-08,
CDISCCORE01,DS,015246-300-0004-00002,3,RANDOMIZED,RANDOMIZED,PROTOCOL MILESTONE,,,2018-05-06,2018-05-06 00:00:00,2018-05-06,
CDISCCORE01,DS,015246-300-0004-00002,3,RANDOMIZED,RANDOMIZED,PROTOCOL MILESTONE,,,2018-05-08T09:13,2018-05-06 00:00:00,2018-05-08T10:00,
CDISCCORE01,DS,015246-300-0004-00002,5,ADVERSE EVENT,LAST CONTACT,DISPOSITION EVENT,,TREATMENT,2018-09-21,2018-09-04,2018-09-22,
CDISCCORE01,DS,015246-300-0004-00002,5,ADVERSE EVENT - date/datetime,LAST CONTACT,DISPOSITION EVENT,,TREATMENT,2018-09-21T06:59,2018-09-04,2018-09-21T07:00,
CDISCCORE01,DS,015246-300-0004-00002,5,ADVERSE EVENT - datetime/date,LAST CONTACT,DISPOSITION EVENT,,TREATMENT,2018-09-21,2018-09-04,2018-09-21,
