STUDYID,DOMAIN,USUBJID,SESEQ,ETCD,ELEMENT,TAETORD,EPOCH,SESTDTC,SEENDTC,SESTDY,SEENDY
CDISCPILOT01,SE,CDISC001,1,SCRN,Screen,1,SCREENING,2018-01-24,2006-03-10,-27,1
CDISCPILOT01,SE,CDISC001,2,IKD,Treatment IKD,2,TREATMENT,2018-12-20T09:40,2019-03-22T10:38,1,396
CDISCPILOT01,SE,CDISC001,3,FU,Follow-up,3,FOLLOW-UP,2019-03-22T10:38,2022-01-19,396,1430
