STUDYID,DOMAIN,USUBJID,POOLID,VSSEQ,VSTESTCD,VSTEST,VSPOS,VSORRES,VSORRESU,VSSTRESC,VSSTRESN,VSSTRESU,VSSTAT,VSLOC,VSLOBXFL,VSREPNUM,VISITNUM,VISIT,EPOCH,VSDTC,VSDY,VSTPT,VSTPTNUM
CDISCPILOT01,VS,SUBJ01,POOL1,1,DIABP,Diastolic Blood Pressure,STANDING,71,mmHg,71,71,mmHg,,,,,1,SCREENING 1,SCREENING,2012,-7,,
CDISCPILOT01,VS,SUBJ02,POOL1,2,DIABP,Diastolic Blood Pressure,STANDING,71,mmHg,71,71,mmHg,,,,,2,SCREENING 2,SCREENING,2012-11,-2,,
CDISCPILOT01,VS,SUBJ03,POOL1,3,DIABP,Diastolic Blood Pressure,STANDING,83,mmHg,83,83,mmHg,,,Y,,3,BASELINE,SCREENING,2012-11-30,1,PREDOSE,-1
CDISCPILOT01,VS,SUBJ04,POOL2,4,DIABP,Diastolic Blood Pressure,STANDING,79,mmHg,79,79,mmHg,,,,,4,WEEK 2,TREATMENT,2012-12-13T08,14,PREDOSE,-1
CDISCPILOT01,VS,SUBJ05,POOL2,6,DIABP,Diastolic Blood Pressure,SUPINE,77,mmHg,77,77,mmHg,,,,1,,WEEK 6,TREATMENT,2013-01-10T09:03,42,5MIN POSTDOSE,-1
CDISCPILOT01,VS,SUBJ06,POOL2,7,DIABP,Diastolic Blood Pressure,STANDING,71,mmHg,71,71,mmHg,,,,2,,WEEK 6,TREATMENT,2013-01-10T09:03:55,42,5MIN POSTDOSE,5
