dataset,variable,label,type,length
cm,STUDYID,Study Identifier,Char,12
cm,DOMAIN,Domain Abbreviation,Char,2
cm,USUBJID,Unique Subject Identifier,Char,8
cm,CMSEQ,Sequence Number,Num,8
cm,CMTRT,"Reported Name of Drug, Med, or Therapy",Char,200
cm,CMOCCUR,Occurrence Indicator,Char,50
cm,CMSTRF,End Relative to Reference Period,Char,50
