STUDYID,RDOMAIN,USUBJID,IDVAR,IDVARVAL,QNAM,QLABEL,QVAL,QORIG,QEVAL
CDISCPILOT01,DM,CDISC008,,,RACE1,Race 1,ASIAN,CRF,
CDISCPILOT01,DM,CDISC008,,,RACE2,Race 2,ASIAN,CRF,
CDISCPILOT01,DM,CDISC008,,,RACE3,Race 3,ASIAN,CRF,
