STUDYID,DOMAIN,USUBJID,VSSEQ,VSTESTCD,VSTEST,VSORRES,VSORRESU,VSSTRESC,VSSTRESU,VSSTAT
1234,VS,123101,1,SYSBP,Systolic Blood Pressure,154,mmHg,154,mmHg,
1234,VS,123101,2,DIABP,Diastolic Blood Pressure,44,mmHg,44,mmHg,
