dataset,variable,label,type,length
Dataset,Filename,cm.xpt,,
Dataset,Label,Prior and Concomitant Medications,,
cm.xpt,STUDYID,Study Identifier,Char,12
cm.xpt,DOMAIN,Domain Abbreviation,Char,2
cm.xpt,USUBJID,Unique Subject Identifier,Char,8
cm.xpt,CMSEQ,Sequence Number,Num,8
cm.xpt,CMTRT,"Reported Name of Drug, Med, or Therapy",Char,200
cm.xpt,CMINDC,Indication,Char,200
cm.xpt,CMDOSE,Dose per Administration,Num,8
cm.xpt,CMDOSU,Dose Units,Char,6
cm.xpt,CMDOSFRQ,Dosing Frequency per Interval,Char,3
cm.xpt,CMROUTE,Route of Administration,Char,24
cm.xpt,EPOCH,Epoch,Char,9
cm.xpt,CMSTDTC,Start Date/Time of Medication,Char,10
cm.xpt,CMENDTC,End Date/Time of Medication,Char,10
cm.xpt,CMSTDY,Study Day of Start of Medication,Num,8
cm.xpt,CMENDY,Study Day of End of Medication,Num,8
cm.xpt,CMENRTPT,End Relative to Reference Time Point,Char,7
cm.xpt,CMENTPT,End Reference Time Point,Char,10
