STUDYID,DOMAIN,USUBJID,DSSEQ,DSTERM,DSDECOD,DSUSCHFL,DSSTDTC,DSNOMDY
CDISCPILOT01,DS,CDISC001,1,Animal escaped/Found dead ,ACCIDENTAL DEATH,Y,2013-05-20,
CDISCPILOT01,DS,CDISC002,1,Animal escaped/Found dead ,ACCIDENTAL DEATH,Y,2013-01-14,
CDISCPILOT01,DS,CDISC003,1,Final Phase sacrifice ,TERMINAL SACRIFICE,,2014-02-13,
CDISCPILOT01,DS,CDISC004,1,Final Phase sacrifice ,TERMINAL SACRIFICE,,2014-03-18,
CDISCPILOT01,DS,CDISC005,1,Final Phase sacrifice ,TERMINAL SACRIFICE,,2013-08-06,
