STUDYID,DOMAIN,USUBJID,VISITNUM,VISIT,VISITDY,SVSTDTC,SVENDTC,SVSTDY,SVENDY,SVUPDES
CDISCPILOT01,SV,CDISC001,1,SCREENING 1,1,2012-11-23,2012-11-23,-7,-7,
CDISCPILOT01,SV,CDISC001,2,SCREENING 2,2,2012-11-28,2012-11-28,-2,-2,
CDISCPILOT01,SV,CDISC001,3,BASELINE,11,2012-11-30,2012-11-30,1,1,
CDISCPILOT01,SV,CDISC001,4,WEEK 2,18,2012-12-13,2012-12-13,14,14,
CDISCPILOT01,SV,CDISC001,5,WEEK 4,39,2012-12-26,2012-12-26,27,27,
CDISCPILOT01,SV,CDISC001,5.01,WEEK 4: UNSCHEDULED 01,,2012-12-28,2012-12-28,29,29,UNSCHEDULED LABS
