STUDYID,DOMAIN,USUBJID,AESEQ,AETERM,AEMODIFY,AEDECOD,AEBODSYS,AESEV,AESER,AEACN,AEREL,AEOUT,AESCONG,AESDISAB,AESDTH,AESHOSP,AESLIFE,EPOCH,AESTDTC,AEENDTC,AESTDY,AEENDY,AEENRF
TEST,AE,001,2,POUNDING HEADACHE,HEADACHE,Headache,Nervous system disorders,SEVERE,N,NOT APPLICABLE,DEFINITELY NOT RELATED,RECOVERED/RESOLVED,,,,CDISCPILOT01,,SCREENING,2022-03-19,2022-03-19,-2,-2,
TEST,AE,001,2,POUNDING HEADACHE,HEADACHE,Headache,Nervous system disorders,SEVERE,N,NOT APPLICABLE,DEFINITELY NOT RELATED,RECOVERED/RESOLVED,,,,CDISCPILOT01,,SCREENING,2022-03-20,2022-03-20,0,0,
