{
    "rule": {
        "Authorities": [
            {
                "Organization": "CDISC",
                "Standards": [
                    {
                        "Name": "SDTMIG",
                        "References": [
                            {
                                "Citations": [
                                    {
                                        "Document": "Model v2.0",
                                        "Item": "--EVDTYP",
                                        "Section": "Events",
                                        "Cited_Guidance": "MH Domain only"
                                    }
                                ],
                                "Origin": "SDTM and SDTMIG Conformance Rules",
                                "Version": "2.0",
                                "Rule_Identifier": {
                                    "Id": "CG0567",
                                    "Version": "1"
                                }
                            }
                        ],
                        "Version": "3.4"
                    },
                    {
                        "Name": "SDTMIG",
                        "References": [
                            {
                                "Citations": [
                                    {
                                        "Document": "Model v1.7",
                                        "Item": "MHEVDTYP",
                                        "Section": "Table 2.2.12.1",
                                        "Cited_Guidance": "The concept of domain-specific variables was first introduced in SDTM v1.5. These variables are for use only in a specific domain and will be identified in the appropriate implementation guide."
                                    }
                                ],
                                "Origin": "SDTM and SDTMIG Conformance Rules",
                                "Version": "2.0",
                                "Rule_Identifier": {
                                    "Id": "CG0567",
                                    "Version": "1"
                                }
                            }
                        ],
                        "Version": "3.3"
                    },
                    {
                        "Name": "TIG",
                        "References": [
                            {
                                "Citations": [
                                    {
                                        "Document": "SDTM v2.1",
                                        "Item": "--EVDTYP",
                                        "Section": "3.1.2 The Events Observation Class",
                                        "Cited_Guidance": "MH Domain only"
                                    }
                                ],
                                "Origin": "TIG Conformance Rules",
                                "Version": "1.0",
                                "Rule_Identifier": {
                                    "Id": "TIG0652",
                                    "Version": "1"
                                }
                            }
                        ],
                        "Substandard": "SDTM",
                        "Version": "1.0"
                    }
                ]
            }
        ],
        "Check": {
            "all": [
                {
                    "name": "--EVDTYP",
                    "operator": "exists"
                }
            ]
        },
        "Core": {
            "Id": "CORE-000114",
            "Status": "Published",
            "Version": "1"
        },
        "Description": "Raise an error when --EVDTYP is present in a dataset other than MH.",
        "Executability": "Fully Executable",
        "Outcome": {
            "Message": "--EVDTYP is present in a dataset other than MH.",
            "Output_Variables": [
                "--EVDTYP"
            ]
        },
        "Scope": {
            "Classes": {
                "Include": [
                    "EVENTS"
                ]
            },
            "Domains": {
                "Exclude": [
                    "MH"
                ]
            },
            "Use_Case": "INDH, PROD"
        },
        "Sensitivity": "Dataset",
        "Rule_Type": "Record Data"
    },
    "datasets": [
        {
            "filename": "mh.xpt",
            "label": "Medical History",
            "domain": "MH",
            "variables": [
                {
                    "name": "STUDYID",
                    "label": "Study Identifier",
                    "type": "Char",
                    "length": 50
                },
                {
                    "name": "DOMAIN",
                    "label": "Domain Abbreviation",
                    "type": "Char",
                    "length": 50
                },
                {
                    "name": "USUBJID",
                    "label": "Unique Subject Identifier",
                    "type": "Char",
                    "length": 50
                },
                {
                    "name": "MHSEQ",
                    "label": "Sequence Number",
                    "type": "Num",
                    "length": 8
                },
                {
                    "name": "MHGRPID",
                    "label": "Group ID",
                    "type": "Char",
                    "length": 50
                },
                {
                    "name": "MHTERM",
                    "label": "Reported Term for the Medical History",
                    "type": "Char",
                    "length": 50
                },
                {
                    "name": "MHDECOD",
                    "label": "Dictionary-Derived Term",
                    "type": "Char",
                    "length": 50
                },
                {
                    "name": "MHEVDTYP",
                    "label": "Medical History Event Date Type",
                    "type": "Char",
                    "length": 50
                },
                {
                    "name": "MHCAT",
                    "label": "Category for Medical History",
                    "type": "Char",
                    "length": 50
                },
                {
                    "name": "MHSCAT",
                    "label": "Subcategory for Medical History",
                    "type": "Char",
                    "length": 50
                },
                {
                    "name": "MHBODSYS",
                    "label": "Body System or Organ Class",
                    "type": "Char",
                    "length": 50
                },
                {
                    "name": "MHSTDTC",
                    "label": "Start Date/Time of Medical History Event",
                    "type": "Char",
                    "length": 50
                },
                {
                    "name": "MHENRTPT",
                    "label": "End Relative to Reference Time Point",
                    "type": "Char",
                    "length": 50
                },
                {
                    "name": "MHENTPT",
                    "label": "End Reference Time Point",
                    "type": "Char",
                    "length": 50
                }
            ],
            "records": {
                "STUDYID": [
                    "ABC123",
                    "ABC123",
                    "ABC123",
                    "ABC123",
                    "ABC123"
                ],
                "DOMAIN": [
                    "MH",
                    "MH",
                    "MH",
                    "MH",
                    "MH"
                ],
                "USUBJID": [
                    "123101",
                    "123101",
                    "123101",
                    "123101",
                    "123101"
                ],
                "MHSEQ": [
                    1,
                    2,
                    3,
                    4,
                    5
                ],
                "MHGRPID": [
                    "",
                    "",
                    "",
                    "CHF",
                    "CHF"
                ],
                "MHTERM": [
                    "ASTHMA",
                    "FREQUENT HEADACHES",
                    "BROKEN LEG",
                    "CONGESTIVE HEART FAILURE",
                    "CONGESTIVE HEART FAILURE"
                ],
                "MHDECOD": [
                    "Asthma",
                    "Headache",
                    "Bone fracture",
                    "Cardiac failure congestive",
                    "Cardiac failure congestive"
                ],
                "MHEVDTYP": [
                    "",
                    "",
                    "",
                    "SYMPTOM ONSET",
                    "DIAGNOSIS"
                ],
                "MHCAT": [
                    "GENERAL MEDICAL HISTORY",
                    "GENERAL MEDICAL HISTORY",
                    "GENERAL MEDICAL HISTORY",
                    "CARDIAC MEDICAL HISTORY",
                    "CARDIAC MEDICAL HISTORY"
                ],
                "MHSCAT": [
                    "RESPIRATORY",
                    "CNS",
                    "OTHER",
                    "",
                    ""
                ],
                "MHBODSYS": [
                    "Respiratory system disorders",
                    "Central and peripheral nervous system disorders",
                    "Musculoskeletal system disorders",
                    "Cardiac disorders",
                    "Cardiac disorders"
                ],
                "MHSTDTC": [
                    "",
                    "",
                    "",
                    "2004-09-17",
                    "2004-09-19"
                ],
                "MHENRTPT": [
                    "ONGOING",
                    "ONGOING",
                    "BEFORE",
                    "",
                    ""
                ],
                "MHENTPT": [
                    "2004-09-18",
                    "2004-09-18",
                    "2004-09-18",
                    "",
                    ""
                ]
            }
        }
    ],
    "codelists": []
}