{3 items
"rule":{10 items
"Authorities":[1 item
0:{2 items
"Organization":"CDISC"
"Standards":[4 items
0:{3 items
"Name":"SDTMIG"
"References":[1 item
0:{4 items
"Citations":[1 item
0:{4 items
"Document":"Model v2.0"
"Item":"RDOMAIN"
"Section":"Related Records"
"Cited_Guidance":"Two-character abbreviation for the domain of the parent record(s). "
}
]
"Origin":"SDTM and SDTMIG Conformance Rules"
"Version":"2.0"
"Rule_Identifier":{2 items
"Id":"CG0374"
"Version":"1"
}
}
]
"Version":"3.4"
}
1:{3 items
"Name":"SDTMIG"
"References":[1 item
0:{4 items
"Citations":[1 item
0:{4 items
"Document":"Model v1.4"
"Item":"RDOMAIN Description"
"Section":"4.1.1"
"Cited_Guidance":"Two-character abbreviation for the domain of the parent record(s)."
}
]
"Origin":"SDTM and SDTMIG Conformance Rules"
"Version":"2.0"
"Rule_Identifier":{2 items
"Id":"CG0374"
"Version":"1"
}
}
]
"Version":"3.2"
}
2:{3 items
"Name":"SDTMIG"
"References":[1 item
0:{4 items
"Citations":[1 item
0:{4 items
"Document":"Model v1.7"
"Item":"RDOMAIN Description"
"Section":"4.1.1.1"
"Cited_Guidance":"2-character abbreviation for the domain of the parent record(s)."
}
]
"Origin":"SDTM and SDTMIG Conformance Rules"
"Version":"2.0"
"Rule_Identifier":{2 items
"Id":"CG0374"
"Version":"1"
}
}
]
"Version":"3.3"
}
3:{4 items
"Name":"TIG"
"References":[1 item
0:{4 items
"Citations":[1 item
0:{4 items
"Document":"SDTM v2.1"
"Item":"RDOMAIN"
"Section":"6.1 Related Records Dataset"
"Cited_Guidance":"Two-character abbreviation for the domain of the parent record(s)."
}
]
"Origin":"TIG Conformance Rules"
"Version":"1.0"
"Rule_Identifier":{2 items
"Id":"TIG0538"
"Version":"1"
}
}
]
"Substandard":"SDTM"
"Version":"1.0"
}
]
}
]
"Check":{1 item
"all":[1 item
0:{3 items
"name":"RDOMAIN"
"operator":"is_not_contained_by"
"value":"$study_domains"
}
]
}
"Core":{3 items
"Id":"CORE-000384"
"Status":"Published"
"Version":"1"
}
"Description":"RELREC.RDOMAIN must represent a dataset that is present in the study."
"Executability":"Fully Executable"
"Operations":[1 item
0:{2 items
"id":"$study_domains"
"operator":"study_domains"
}
]
"Outcome":{2 items
"Message":"RELREC.RDOMAIN does not represent a dataset present in the study"
"Output_Variables":[1 item
0:"RDOMAIN"
]
}
"Scope":{3 items
"Classes":{1 item
"Include":[1 item
0:"ALL"
]
}
"Domains":{1 item
"Include":[1 item
0:"RELREC"
]
}
"Use_Case":"INDH, PROD"
}
"Sensitivity":"Record"
"Rule_Type":"Record Data"
}
"datasets":[4 items
0:{5 items
"filename":"co.xpt"
"label":"Comments"
"domain":"CO"
"variables":[13 items
0:{4 items
"name":"STUDYID"
"label":"Study Identifier"
"type":"Char"
"length":50
}
1:{4 items
"name":"DOMAIN"
"label":"Domain Abbreviation"
"type":"Char"
"length":50
}
2:{4 items
"name":"RDOMAIN"
"label":"Related Domain Abbreviation"
"type":"Char"
"length":50
}
3:{4 items
"name":"USUBJID"
"label":"Unique Subject Identifier"
"type":"Char"
"length":50
}
4:{4 items
"name":"COSEQ"
"label":"Sequence Number"
"type":"Num"
"length":8
}
5:{4 items
"name":"IDVAR"
"label":"Identifying Variable"
"type":"Char"
"length":50
}
6:{4 items
"name":"IDVARVAL"
"label":"Identifying Variable Value"
"type":"Char"
"length":50
}
7:{4 items
"name":"COREF"
"label":"Comment Reference"
"type":"Char"
"length":50
}
8:{4 items
"name":"COVAL"
"label":"Comment"
"type":"Char"
"length":50
}
9:{4 items
"name":"COEVAL"
"label":"Evaluator"
"type":"Char"
"length":50
}
10:{4 items
"name":"COEVALID"
"label":"Evaluator Identifier"
"type":"Char"
"length":50
}
11:{4 items
"name":"CODTC"
"label":"Date/Time of Comment"
"type":"Char"
"length":50
}
12:{4 items
"name":"CODY"
"label":"Study Day of Comment"
"type":"Num"
"length":8
}
]
"records":{13 items
"STUDYID":[1 item
0:"CDISC-PILOT-01"
]
"DOMAIN":[1 item
0:"CO"
]
"RDOMAIN":[1 item
0:"LB"
]
"USUBJID":[1 item
0:"S001"
]
"COSEQ":[1 item
0:1
]
"IDVAR":[1 item
0:"LBSEQ"
]
"IDVARVAL":[1 item
0:"320"
]
"COREF":[1 item
0:""
]
"COVAL":[1 item
0:"test comment"
]
"COEVAL":[1 item
0:""
]
"COEVALID":[1 item
0:""
]
"CODTC":[1 item
0:""
]
"CODY":[1 item
0:NULL
]
}
}
1:{5 items
"filename":"relrec.xpt"
"label":"Related Records"
"domain":"RELREC"
"variables":[7 items
0:{4 items
"name":"STUDYID"
"label":"Study Identifier"
"type":"Char"
"length":50
}
1:{4 items
"name":"RDOMAIN"
"label":"Related Domain Abbreviation"
"type":"Char"
"length":50
}
2:{4 items
"name":"USUBJID"
"label":"Unique Subject Identifier"
"type":"Char"
"length":50
}
3:{4 items
"name":"IDVAR"
"label":"Identifying Variable"
"type":"Char"
"length":50
}
4:{4 items
"name":"IDVARVAL"
"label":"Identifying Variable Value"
"type":"Char"
"length":50
}
5:{4 items
"name":"RELTYPE"
"label":"Relationship Type"
"type":"Char"
"length":50
}
6:{4 items
"name":"RELID"
"label":"Relationship Identifier"
"type":"Char"
"length":50
}
]
"records":{7 items
"STUDYID":[1 item
0:"CDISC-PILOT-01"
]
"RDOMAIN":[1 item
0:"LB"
]
"USUBJID":[1 item
0:"S001"
]
"IDVAR":[1 item
0:"LBSEQ"
]
"IDVARVAL":[1 item
0:"320"
]
"RELTYPE":[1 item
0:"ONE"
]
"RELID":[1 item
0:"1"
]
}
}
2:{5 items
"filename":"supplb.xpt"
"label":"Supplemental Qualifiers for Laboratory"
"domain":"SUPPLB"
"variables":[10 items
0:{4 items
"name":"STUDYID"
"label":"Study Identifier"
"type":"Char"
"length":50
}
1:{4 items
"name":"RDOMAIN"
"label":"Related Domain Abbreviation"
"type":"Char"
"length":50
}
2:{4 items
"name":"USUBJID"
"label":"Unique Subject Identifier"
"type":"Char"
"length":50
}
3:{4 items
"name":"IDVAR"
"label":"Identifying Variable"
"type":"Char"
"length":50
}
4:{4 items
"name":"IDVARVAL"
"label":"Identifying Variable Value"
"type":"Char"
"length":50
}
5:{4 items
"name":"QNAM"
"label":"Qualifier Variable Name"
"type":"Char"
"length":50
}
6:{4 items
"name":"QLABEL"
"label":"Qualifier Variable Label"
"type":"Char"
"length":50
}
7:{4 items
"name":"QVAL"
"label":"Data Value"
"type":"Char"
"length":50
}
8:{4 items
"name":"QORIG"
"label":"Origin"
"type":"Char"
"length":50
}
9:{4 items
"name":"QEVAL"
"label":"Evaluator"
"type":"Char"
"length":50
}
]
"records":{10 items
"STUDYID":[1 item
0:"CDISC-PILOT-01"
]
"RDOMAIN":[1 item
0:"LB"
]
"USUBJID":[1 item
0:"S001"
]
"IDVAR":[1 item
0:"LBSEQ"
]
"IDVARVAL":[1 item
0:"320"
]
"QNAM":[1 item
0:"LBCLSIG"
]
"QLABEL":[1 item
0:"Clinically Significant"
]
"QVAL":[1 item
0:"Y"
]
"QORIG":[1 item
0:"CRF"
]
"QEVAL":[1 item
0:""
]
}
}
3:{5 items
"filename":"lb.xpt"
"label":"Labotory Results"
"domain":"LB"
"variables":[62 items
0:{4 items
"name":"STUDYID"
"label":"Study Identifier"
"type":"Char"
"length":50
}
1:{4 items
"name":"DOMAIN"
"label":"Domain Abbreviation"
"type":"Char"
"length":50
}
2:{4 items
"name":"USUBJID"
"label":"Unique Subject Identifier"
"type":"Char"
"length":50
}
3:{4 items
"name":"LBSEQ"
"label":"Sequence Number"
"type":"Num"
"length":8
}
4:{4 items
"name":"LBGRPID"
"label":"Group ID"
"type":"Char"
"length":50
}
5:{4 items
"name":"LBREFID"
"label":"Specimen ID"
"type":"Char"
"length":50
}
6:{4 items
"name":"LBSPID"
"label":"Sponsor-Defined Identifier"
"type":"Char"
"length":50
}
7:{4 items
"name":"LBTESTCD"
"label":"Lab Test or Examination Short Name"
"type":"Char"
"length":50
}
8:{4 items
"name":"LBTEST"
"label":"Lab Test or Examination Name"
"type":"Char"
"length":50
}
9:{4 items
"name":"LBTSTCND"
"label":"Test Condition"
"type":"Char"
"length":50
}
10:{4 items
"name":"LBBDAGNT"
"label":"Binding Agent"
"type":"Char"
"length":50
}
11:{4 items
"name":"LBTSTOPO"
"label":"Test Operational Objective"
"type":"Char"
"length":50
}
12:{4 items
"name":"LBCAT"
"label":"Category for Lab Test"
"type":"Char"
"length":50
}
13:{4 items
"name":"LBSCAT"
"label":"Subcategory for Lab Test"
"type":"Char"
"length":50
}
14:{4 items
"name":"LBORRES"
"label":"Result or Finding in Original Units"
"type":"Char"
"length":50
}
15:{4 items
"name":"LBORRESU"
"label":"Original Units"
"type":"Char"
"length":50
}
16:{4 items
"name":"LBRESSCL"
"label":"Result Scale"
"type":"Char"
"length":50
}
17:{4 items
"name":"LBRESTYP"
"label":"Result Type"
"type":"Char"
"length":50
}
18:{4 items
"name":"LBCOLSRT"
"label":"Collected Summary Result Type"
"type":"Char"
"length":50
}
19:{4 items
"name":"LBORNRLO"
"label":"Reference Range Lower Limit in Orig Unit"
"type":"Char"
"length":50
}
20:{4 items
"name":"LBORNRHI"
"label":"Reference Range Upper Limit in Orig Unit"
"type":"Char"
"length":50
}
21:{4 items
"name":"LBLLOD"
"label":"Lower Limit of Detection"
"type":"Char"
"length":50
}
22:{4 items
"name":"LBSTRESC"
"label":"Character Result/Finding in Std Format"
"type":"Char"
"length":50
}
23:{4 items
"name":"LBSTRESN"
"label":"Numeric Result/Finding in Standard Units"
"type":"Num"
"length":8
}
24:{4 items
"name":"LBSTRESU"
"label":"Standard Units"
"type":"Char"
"length":50
}
25:{4 items
"name":"LBSTNRLO"
"label":"Reference Range Lower Limit-Std Units"
"type":"Num"
"length":8
}
26:{4 items
"name":"LBSTNRHI"
"label":"Reference Range Upper Limit-Std Units"
"type":"Num"
"length":8
}
27:{4 items
"name":"LBSTNRC"
"label":"Reference Range for Char Rslt-Std Units"
"type":"Char"
"length":50
}
28:{4 items
"name":"LBNRIND"
"label":"Reference Range Indicator"
"type":"Char"
"length":50
}
29:{4 items
"name":"LBSTAT"
"label":"Completion Status"
"type":"Char"
"length":50
}
30:{4 items
"name":"LBREASND"
"label":"Reason Test Not Done"
"type":"Char"
"length":50
}
31:{4 items
"name":"LBNAM"
"label":"Vendor Name"
"type":"Char"
"length":50
}
32:{4 items
"name":"LBLOINC"
"label":"LOINC Code"
"type":"Char"
"length":50
}
33:{4 items
"name":"LBSPEC"
"label":"Specimen Type"
"type":"Char"
"length":50
}
34:{4 items
"name":"LBSPCCND"
"label":"Specimen Condition"
"type":"Char"
"length":50
}
35:{4 items
"name":"LBSPCUFL"
"label":"Specimen Usability for the Test"
"type":"Char"
"length":50
}
36:{4 items
"name":"LBMETHOD"
"label":"Method of Test or Examination"
"type":"Char"
"length":50
}
37:{4 items
"name":"LBANMETH"
"label":"Analysis Method"
"type":"Char"
"length":50
}
38:{4 items
"name":"LBTMTHSN"
"label":"Test Method Sensitivity"
"type":"Char"
"length":50
}
39:{4 items
"name":"LBLOBXFL"
"label":"Last Observation Before Exposure Flag"
"type":"Char"
"length":50
}
40:{4 items
"name":"LBBLFL"
"label":"Baseline Flag"
"type":"Char"
"length":50
}
41:{4 items
"name":"LBFAST"
"label":"Fasting Status"
"type":"Char"
"length":50
}
42:{4 items
"name":"LBDRVFL"
"label":"Derived Flag"
"type":"Char"
"length":50
}
43:{4 items
"name":"LBTOX"
"label":"Toxicity"
"type":"Char"
"length":50
}
44:{4 items
"name":"LBTOXGR"
"label":"Standard Toxicity Grade"
"type":"Char"
"length":50
}
45:{4 items
"name":"LBCLSIG"
"label":"Clinically Significant, Collected"
"type":"Char"
"length":50
}
46:{4 items
"name":"VISITNUM"
"label":"Visit Number"
"type":"Num"
"length":8
}
47:{4 items
"name":"VISIT"
"label":"Visit Name"
"type":"Char"
"length":50
}
48:{4 items
"name":"VISITDY"
"label":"Planned Study Day of Visit"
"type":"Num"
"length":8
}
49:{4 items
"name":"TAETORD"
"label":"Planned Order of Element within Arm"
"type":"Num"
"length":8
}
50:{4 items
"name":"EPOCH"
"label":"Epoch"
"type":"Char"
"length":50
}
51:{4 items
"name":"LBDTC"
"label":"Date/Time of Specimen Collection"
"type":"Char"
"length":50
}
52:{4 items
"name":"LBENDTC"
"label":"End Date/Time of Specimen Collection"
"type":"Char"
"length":50
}
53:{4 items
"name":"LBDY"
"label":"Study Day of Specimen Collection"
"type":"Num"
"length":8
}
54:{4 items
"name":"LBENDY"
"label":"Study Day of End of Observation"
"type":"Num"
"length":8
}
55:{4 items
"name":"LBTPT"
"label":"Planned Time Point Name"
"type":"Char"
"length":50
}
56:{4 items
"name":"LBTPTNUM"
"label":"Planned Time Point Number"
"type":"Num"
"length":8
}
57:{4 items
"name":"LBELTM"
"label":"Planned Elapsed Time from Time Point Ref"
"type":"Char"
"length":50
}
58:{4 items
"name":"LBTPTREF"
"label":"Time Point Reference"
"type":"Char"
"length":50
}
59:{4 items
"name":"LBRFTDTC"
"label":"Date/Time of Reference Time Point"
"type":"Char"
"length":50
}
60:{4 items
"name":"LBPTFL"
"label":"Point in Time Flag"
"type":"Char"
"length":50
}
61:{4 items
"name":"LBPDUR"
"label":"Planned Duration"
"type":"Char"
"length":50
}
]
"records":{62 items
"STUDYID":[1 item
0:"CDISC-PILOT-01"
]
"DOMAIN":[1 item
0:"LB"
]
"USUBJID":[1 item
0:"S001"
]
"LBSEQ":[1 item
0:320
]
"LBGRPID":[1 item
0:""
]
"LBREFID":[1 item
0:""
]
"LBSPID":[1 item
0:""
]
"LBTESTCD":[1 item
0:""
]
"LBTEST":[1 item
0:""
]
"LBTSTCND":[1 item
0:""
]
"LBBDAGNT":[1 item
0:""
]
"LBTSTOPO":[1 item
0:""
]
"LBCAT":[1 item
0:""
]
"LBSCAT":[1 item
0:""
]
"LBORRES":[1 item
0:""
]
"LBORRESU":[1 item
0:""
]
"LBRESSCL":[1 item
0:""
]
"LBRESTYP":[1 item
0:""
]
"LBCOLSRT":[1 item
0:""
]
"LBORNRLO":[1 item
0:""
]
"LBORNRHI":[1 item
0:""
]
"LBLLOD":[1 item
0:""
]
"LBSTRESC":[1 item
0:""
]
"LBSTRESN":[1 item
0:NULL
]
"LBSTRESU":[1 item
0:""
]
"LBSTNRLO":[1 item
0:NULL
]
"LBSTNRHI":[1 item
0:NULL
]
"LBSTNRC":[1 item
0:""
]
"LBNRIND":[1 item
0:""
]
"LBSTAT":[1 item
0:""
]
"LBREASND":[1 item
0:""
]
"LBNAM":[1 item
0:""
]
"LBLOINC":[1 item
0:""
]
"LBSPEC":[1 item
0:""
]
"LBSPCCND":[1 item
0:""
]
"LBSPCUFL":[1 item
0:""
]
"LBMETHOD":[1 item
0:""
]
"LBANMETH":[1 item
0:""
]
"LBTMTHSN":[1 item
0:""
]
"LBLOBXFL":[1 item
0:""
]
"LBBLFL":[1 item
0:""
]
"LBFAST":[1 item
0:""
]
"LBDRVFL":[1 item
0:""
]
"LBTOX":[1 item
0:""
]
"LBTOXGR":[1 item
0:""
]
"LBCLSIG":[1 item
0:""
]
"VISITNUM":[1 item
0:NULL
]
"VISIT":[1 item
0:""
]
"VISITDY":[1 item
0:NULL
]
"TAETORD":[1 item
0:NULL
]
"EPOCH":[1 item
0:""
]
"LBDTC":[1 item
0:""
]
"LBENDTC":[1 item
0:""
]
"LBDY":[1 item
0:NULL
]
"LBENDY":[1 item
0:NULL
]
"LBTPT":[1 item
0:""
]
"LBTPTNUM":[1 item
0:NULL
]
"LBELTM":[1 item
0:""
]
"LBTPTREF":[1 item
0:""
]
"LBRFTDTC":[1 item
0:""
]
"LBPTFL":[1 item
0:""
]
"LBPDUR":[1 item
0:""
]
}
}
]
"codelists":[]0 items