STUDYID,DOMAIN,USUBJID,AETERM,AESER,AEOUT,AESDTH,AESTDTC,AEENDTC
CDISCPILOT01,AE,CDISC001,SHOULDER PAIN,N,NOT RECOVERED/NOT RESOLVED,,2018-07-08,
CDISCPILOT01,AE,CDISC001,HYPERTENSION,N,RECOVERED/RESOLVED,,2018-07-23,2018-07-23
CDISCPILOT01,AE,CDISC001,PNEUMONIA,Y,FATAL,Y,2018-08-14,2018-08-22
CDISCPILOT01,AE,CDISC002,WORSENING OF LEFT CATARACT,N,RECOVERED/RESOLVED,,2018-10-22,2018-10-22
CDISCPILOT01,AE,CDISC002,FEVER,N,RECOVERED/RESOLVED,,2018-11-02,2018-11-03
CDISCPILOT01,AE,CDISC002,HEALTH DETERIORATION DUE TO PROGRESSION OF DISEASE,Y,FATAL,Y,2018-11-12,2019-02-04
CDISCPILOT01,AE,CDISC003,VERTIGO,Y,RECOVERED/RESOLVED,,2018-08-06,2018-11-09
CDISCPILOT01,AE,CDISC003,HEARING LOSS,Y,RECOVERED/RESOLVED,,2018-09-03,2018-10-09
CDISCPILOT01,AE,CDISC003,HEART ATTACK,Y,FATAL,Y,2018-12-11,2018-12-11
