STUDYID,DOMAIN,USUBJID,DVSEQ,DVTERM,DVDECOD,DVPRESP,DVOCCUR,DVSTAT
CDISCPILOT01,DV,CDISC001,1,"IVRS PROCESS DEVIATION - NO DOSE CALL
PERFORMED.",TREATMENT DEVIATION,,,
CDISCPILOT01,DV,CDISC001,2,"DRUG XXX ADMINISTERED DURING STUDY
TREATMENT PERIOD",EXCLUDED CONCOMITANT MEDICATION,,,
CDISCPILOT01,DV,CDISC001,3,VISIT 3 DOSE <15 MG,TREATMENT DEVIATION,,,
