STUDYID,DOMAIN,USUBJID,DSSEQ,DSTERM,DSDECOD,DSCAT,DSSCAT,EPOCH,DSDTC,DSSTDTC,DSDY,DSSTDY
CDISC-TEST,DS,S001,1,COMPLETED,COMPLETED,DISPOSITION EVENT,STUDY TREATMENT,TREATMENT,,,,
CDISC-TEST,DS,S001,2,COMPLETED,COMPLETED,DISPOSITION EVENT,STUDY TREATMENT1,TREATMENT,,,,
CDISC-TEST,DS,S002,1,COMPLETED,COMPLETED,DISPOSITION EVENT,STUDY TREATMENT2,TREATMENT,,,,
CDISC-TEST,DS,S002,2,COMPLETED,COMPLETED,DISPOSITION EVENT,STUDY TREATMENT,SCREENING,,,,
CDISC-TEST,DS,S002,3,COMPLETED,COMPLETED,DISPOSITION EVENT,STUDY TREATMENT,SCREENING2,,,,
CDISC-TEST,DS,S003,4,COMPLETED,COMPLETED,DISPOSITION EVENT,STUDY TREATMENT,SCREENING,,,,
