STUDYID,DOMAIN,USUBJID,DSSEQ,DSTERM,DSDECOD
CDISCCORE01,DS,0001,1,INFORMED CONSENT OBTAINED,INFORMED CONSENT OBTAINED
CDISCCORE01,DS,0001,2,COMPLETED,COMPLETED
CDISCCORE01,DS,0001,3,RANDOMIZED,RANDOMIZED
CDISCCORE01,DS,0001,4,ADVERSE EVENT,ADVERSE EVENT
CDISCCORE01,DS,0001,5,PROGRESSIVE DISEASE,PROGRESSIVE DISEASE
CDISCCORE01,DS,0001,6,DEATH,LAST CONTACT
CDISCCORE01,DS,0001,7,PROGRESSIVE DISEASE,DEATH
CDISCCORE01,DS,0002,1,INFORMED CONSENT OBTAINED,INFORMED CONSENT OBTAINED
CDISCCORE01,DS,0002,2,COMPLETED,COMPLETED
CDISCCORE01,DS,0002,3,RANDOMIZED,RANDOMIZED
CDISCCORE01,DS,0002,4,ADVERSE EVENT,ADVERSE EVENT
CDISCCORE01,DS,0002,5,ADVERSE EVENT,DEATH
CDISCCORE01,DS,0002,6,DEATH,LAST CONTACT
CDISCCORE01,DS,0002,7,DEATH,LAST CONTACT
