# Variable: LBSTNRLO
# Condition:
# Rule: LBSTNRLO  is expressed using the units in LBSTRESU
Authorities:
- Organization: CDISC
  Standards:
  - Name: SDTMIG
    References:
    - Citations:
      - Cited Guidance: Lower end of reference range for continuous measurements for 
          LBSTRESC/LBSTRESN in standardized units.
        Document: IG v3.4
        Item: Specification
        Section: 6.3.5.6
      Origin: SDTM and SDTMIG Conformance Rules
      Rule Identifier:
        Id: CG0188
        Version: "2"
      Version: "2.0"
    Version: "3.4"
  - Name: SDTMIG
    References:
    - Citations:
      - Cited Guidance: Lower end of reference range for continuous measurements for 
          LBSTRESC/LBSTRESN in standardized units.
        Document: IG v3.2
        Item: Specification
        Section: "6.3"
      Origin: SDTM and SDTMIG Conformance Rules
      Rule Identifier:
        Id: CG0188
        Version: "2"
      Version: "2.0"
    Version: "3.2"
  - Name: SDTMIG
    References:
    - Citations:
      - Cited Guidance: Lower end of reference range for continuous measurements for 
          LBSTRESC/LBSTRESN in standardized units.
        Document: IG v3.3
        Item: Specification
        Section: 6.3.6
      Origin: SDTM and SDTMIG Conformance Rules
      Rule Identifier:
        Id: CG0188
        Version: "2"
      Version: "2.0"
    Version: "3.3"
Check:
  all:
  - name: LBSTRESU
    operator: non_empty
  - name: LBORRESU
    operator: equal_to
    value: LBSTRESU
  - name: LBORNRLO
    operator: not_equal_to
    value: LBSTNRLO
Core:
  Id: CDISC.SDTMIG.CG0188
  Status: Draft
  Version: "1"
Description: Trigger error if LBORNRLO is not expressed using the units in LBSTRESU
Executability: Fully Executable
Outcome:
  Message: LBORNRLO is not expressed using the units in LBSTRESU
Rule Type: Record Data
Scope:
  Classes:
    Include:
    - FINDINGS
  Domains:
    Include:
    - LB
Sensitivity: Record
