STUDYID,DOMAIN,USUBJID,SESEQ,ETCD,ELEMENT,TAETORD,EPOCH,SESTDTC,SEENDTC,SESTDY,SEENDY,SEUPDES
CORE01,SE,TEST_123,1,SCRN,Screening,1,SCREENING,2006-06-01,2006-06-03,-2,1,
CORE01,SE,TEST_123,2,DBA,Drug A,2,BLINDED TREATMENT,2006-06-03,2006-06-10,1,8,
CORE01,SE,TEST_123,3,UNPLAN,Unplanned Drug B,,BLINDED TREATMENT,2006-05-31,2006-06-13,29,42,Drug B dispensed in error
