STUDYID,DOMAIN,USUBJID,RSSEQ,RSTESTCD,RSTEST,RSCAT,RSORRES,RSSTRESC,RSSTRESN,RSLOBXFL,VISITNUM,VISIT,EPOCH,RSDTC,RSDY,RSEVLINT
CDISCPILOT01,RS,CDISC001,1,HAMD101,HAMD1-Depressed Mood,HAMD 17,These feeling states indicated only on questioning.,1,1,Y,3,BASELINE,SCREENING,2012-11-30,1,-P1W
CDISCPILOT01,RS,CDISC001,2,HAMD102,HAMD1-Feelings of Guilt,HAMD 17,Absent.,0,0,Y,3,BASELINE,SCREENING,2012-11-30,1,-P1W
CDISCPILOT01,RS,CDISC001,3,HAMD103,HAMD1-Suicide,HAMD 17,Absent.,0,0,Y,3,BASELINE,SCREENING,2012-11-30,1,-P1W
CDISCPILOT01,RS,CDISC001,4,HAMD104,HAMD1-Insomnia Early - Early Night,HAMD 17,No difficulty falling asleep.,0,0,Y,3,BASELINE,SCREENING,2012-11-30,1,-P1W
CDISCPILOT01,RS,CDISC001,5,HAMD105,HAMD1-Insomnia Middle - Middle Night,HAMD 17,No difficulty.,0,0,Y,3,BASELINE,SCREENING,2012-11-30,1,-P1W
CDISCPILOT01,RS,CDISC001,6,HAMD106,HAMD1-Insomnia Early Hours - Morning,HAMD 17,No difficulty.,0,0,Y,3,BASELINE,SCREENING,2012-11-30,1,-P1W
