STUDYID,DOMAIN,USUBJID,TRSEQ,TRGRPID,TRREFID,TRSPID,TRLNKID,TRLNKGRP,TRTESTCD,TRTEST,TRORRES,TRORRESU,TRSTRESC,TRSTRESN,TRSTRESU,TRSTAT,TRREASND,TRNAM,TRPORTOT,TRMETHOD,TRLOBXFL,TRBLFL,TREVAL,TREVALID,TRACPTFL,VISITNUM,VISIT,VISITDY,TAETORD,EPOCH,TRDTC,TRDY,,
ABC,TR,44444,18,TARGET,,,A2,,ACNSD,Absolute Change Nadir in Sum of Diam,-32,mm,-32,-32,mm,,,,,,,,INVESTIGATOR,,,40,WEEK 6,,,,,,,
ABC,TR,44444,1,TARGET,,,A1,T01,DIAMETER,Diameter,17,mm,17,17,mm,,,,SEGMENT,CT SCAN,,,INVESTIGATOR,,,10,SCREEN,,,,2010-01-01,-3,,
ABC,TR,44444,2,TARGET,,,A1,T02,DIAMETER,Diameter,16,mm,16,16,mm,,,,,CT SCAN,,,INVESTIGATOR,,,10,SCREEN,,,,2010-01-01,-3,,
ABC,TR,44444,3,TARGET,,,A1,T03,DIAMETER,Diameter,15,mm,15,15,mm,,,,,MRI,,,INVESTIGATOR,,,10,SCREEN,,,,2010-01-02,-2,,
ABC,TR,44444,4,TARGET,,,A1,T04,DIAMETER,Diameter,14,mm,14,14,mm,,,,,PHOTOGRAPHY,,,INVESTIGATOR,,,10,SCREEN,,,,2010-01-03,-1,,"=text(AE9,""yyyy-mm-dd"")"
ABC,TR,44444,9,TARGET,,,A2,T01,DIAMETER,Diameter,0,mm,0,0,mm,,,,SEGMENT,CT SCAN,,,INVESTIGATOR,,,40,WEEK 6,,,,2010-02-18,46,,
ABC,TR,44444,10,TARGET,,,A2,T02,DIAMETER,Diameter,TOO SMALL TO MEASURE,mm,5,5,mm,,,,,CT SCAN,,,INVESTIGATOR,,,40,WEEK 6,,,,2010-02-18,46,,
ABC,TR,44444,11,TARGET,,,A2,T03,DIAMETER,Diameter,12,mm,12,12,mm,,,,,MRI,,,INVESTIGATOR,,,40,WEEK 6,,,,2010-02-19,47,,
ABC,TR,44444,13,TARGET,,,A2,T04.1,DIAMETER,Diameter,6,mm,6,6,mm,,,,,PHOTOGRAPHY,,,INVESTIGATOR,,,40,WEEK 6,,,,2010-02-20,48,,
ABC,TR,44444,14,TARGET,,,A2,T04.2,DIAMETER,Diameter,7,mm,7,7,mm,,,,,PHOTOGRAPHY,,,INVESTIGATOR,,,40,WEEK 6,,,,2010-02-20,48,,
ABC,TR,44444,23,TARGET,,,A3,T01,DIAMETER,Diameter,0,mm,0,0,mm,,,,SEGMENT,CT SCAN,,,INVESTIGATOR,,,60,WEEK 12,,,,2010-04-02,88,,
ABC,TR,44444,24,TARGET,,,A3,T02,DIAMETER,Diameter,6,mm,6,6,mm,,,,,CT SCAN,,,INVESTIGATOR,,,60,WEEK 12,,,,2010-04-02,88,,
ABC,TR,44444,25,TARGET,,,A3,T03,DIAMETER,Diameter,,,,,,NOT DONE,SCAN NOT PERFORMED,,,MRI,,,INVESTIGATOR,,,60,WEEK 12,,,,,,,
ABC,TR,44444,26,TARGET,,,A3,T04,DIAMETER,Diameter,,,,,,NOT DONE,NOT ASSESSABLE: POOR IMAGEQUALITY,,,PHOTOGRAPHY,,,INVESTIGATOR,,,60,WEEK 12,,,,,,,
ABC,TR,44444,17,TARGET,,,A2,,LNSTATE,Lymph Node State,PATHOLOGICAL,,PATHOLOGICAL,,,,,,,,,,INVESTIGATOR,,,40,WEEK 6,,,,,,,
ABC,TR,44444,19,TARGET,,,A2,,PCBSD,Percent Change From Baseline in Sum of Diameter,-52,%,-52,-52,%,,,,,,,,INVESTIGATOR,,,40,WEEK 6,,,,,,,
ABC,TR,44444,20,TARGET,,,A2,,PCNSD,Percent Change Nadir in Sum of Diam,-52,%,-52,-52,%,,,,,,,,INVESTIGATOR,,,40,WEEK 6,,,,,,,
ABC,TR,44444,6,TARGET,,,A1,,SUMNLNLD,Sum Diameters of Non Lymph Node Tumors,47,mm,47,47,mm,,,,,,,,INVESTIGATOR,,,10,SCREEN,,,,,,,
ABC,TR,44444,16,TARGET,,,A2,,SUMNLNLD,Sum Diameters of Non Lymph Node Tumors,18,mm,18,18,mm,,,,,,,,INVESTIGATOR,,,40,WEEK 6,,,,,,,
ABC,TR,44444,5,TARGET,,,A1,,SUMDIAM,Sum of Diameter,62,mm,62,62,mm,,,,,,,,INVESTIGATOR,,,10,SCREEN,,,,,,,
ABC,TR,44444,15,TARGET,,,A2,,SUMDIAM,Sum of Diameter,30,mm,30,30,mm,,,,,,,,INVESTIGATOR,,,40,WEEK 6,,,,,,,
ABC,TR,44444,7,NON-TARGET,,,A1,NT01,TUMSTATE,Tumor State,PRESENT,,PRESENT,,,,,,,CT SCAN,,,INVESTIGATOR,,,10,SCREEN,,,,2010-01-01,-3,,
ABC,TR,44444,8,NON-TARGET,,,A1,NT02,TUMSTATE,Tumor State,PRESENT,,PRESENT,,,,,,,MRI,,,INVESTIGATOR,,,10,SCREEN,,,,2010-01-02,-2,,
ABC,TR,44444,21,NON-TARGET,,,A2,NT01,TUMSTATE,Tumor State,PRESENT,,PRESENT,,,,,,,CT SCAN,,,INVESTIGATOR,,,40,WEEK 6,,,,2010-02-18,46,,
ABC,TR,44444,22,NON-TARGET,,,A2,NT02,TUMSTATE,Tumor State,PRESENT,,PRESENT,,,,,,,MRI,,,INVESTIGATOR,,,40,WEEK 6,,,,2010-02-19,47,,
ABC,TR,44444,27,NON-TARGET,,,A3,NT01,TUMSTATE,Tumor State,,,,,,,,,,CT SCAN,,,INVESTIGATOR,,,60,WEEK 12,,,,2010-04-02,88,,
ABC,TR,44444,28,NON-TARGET,,,A3,NT02,TUMSTATE,Tumor State,,,,,,NOT DONE,SCAN NOT PERFORMED,,,MRI,,,INVESTIGATOR,,,60,WEEK 12,,,,,,,
