STUDYID,DOMAIN,USUBJID,SPDEVID,ECSEQ,ECTRT,ECPRESP,ECOCCUR,ECDOSE,ECDOSU,ECDOSFRM,ECDOSFRQ,ECROUTE,ECLOT,ECPSTRG,ECPSTRGU
TEST,EC,CDISC001,DEV0001,1,ZANOMALINE,Y,Y,5,mL,INJECTION,QD,SUBCUTANEOUS,SDS580-359,10.8,g/L
TEST,EC,CDISC001,DEV0001,2,MULTIPLE,Y,Y,5,mL,INJECTION,QD,SUBCUTANEOUS,SDS580-359,10.8,g/L
TEST,EC,CDISC001,DEV0001,3,OTHERZ,Y,Y,5,mL,INJECTION,QD,SUBCUTANEOUS,SDS580-359,10.8,g/L
