STUDYID,DOMAIN,USUBJID,DSSEQ,DSTERM,DSDECOD,DSCAT,DSSCAT,EPOCH,DSSTDTC
CDISCCORE01,DS,015246-076-0003-00003,1,INFORMED CONSENT OBTAINED,INFORMED CONSENT OBTAINED,PROTOCOL MILESTONE,,,2018-03-06
CDISCCORE01,DS,015246-076-0003-00003,2,PHARMACOGENOMIC SAMPLES INFORMED CONSENT OBTAINED,INFORMED CONSENT OBTAINED,PROTOCOL MILESTONE,,,2018-05-20
CDISCCORE01,DS,015246-076-0003-00003,3,COMPLETED,COMPLETED,DISPOSITION EVENT,,SCREENING,2018-03-30
CDISCCORE01,DS,015246-076-0003-00003,4,RANDOMIZED,RANDOMIZED,PROTOCOL MILESTONE,,,2018-03-30T13:05
CDISCCORE01,DS,015246-076-0003-00003,5,ADVERSE EVENT,ADVERSE EVENT,DISPOSITION EVENT,PREMATURE TREATMENT-DEX,TREATMENT,2018-09-03
CDISCCORE01,DS,015246-076-0003-00003,6,PROGRESSIVE DISEASE,PROGRESSIVE DISEASE,DISPOSITION EVENT,DEFINITIVE TREATMENT-ALL STUDY TREATMENTS,TREATMENT,2019-02-19
CDISCCORE01,DS,015246-076-0003-00003,7,DEATH,LAST CONTACT,DISPOSITION EVENT,,FOLLOW-UP,2020-02-18
CDISCCORE01,DS,015246-076-0003-00003,8,PROGRESSIVE DISEASE,DEATH,DISPOSITION EVENT,,FOLLOW-UP,2022-02-20
CDISCCORE01,DS,015246-300-0004-00002,1,INFORMED CONSENT OBTAINED,INFORMED CONSENT OBTAINED,PROTOCOL MILESTONE,,,2018-04-17
CDISCCORE01,DS,015246-300-0004-00002,2,COMPLETED,COMPLETED,DISPOSITION EVENT,,SCREENING,2018-05-07
CDISCCORE01,DS,015246-300-0004-00002,3,RANDOMIZED,RANDOMIZED,PROTOCOL MILESTONE,,,2018-05-07T12:36
CDISCCORE01,DS,015246-300-0004-00002,4,ADVERSE EVENT,ADVERSE EVENT,DISPOSITION EVENT,DEFINITIVE TREATMENT-ALL STUDY TREATMENTS,TREATMENT,2018-08-29
CDISCCORE01,DS,015246-300-0004-00002,5,ADVERSE EVENT,DEATH,DISPOSITION EVENT,,TREATMENT,2018-09-04
CDISCCORE01,DS,015246-300-0004-00002,6,DEATH,LAST CONTACT,DISPOSITION EVENT,,FOLLOW-UP,2018-09-04
CDISCCORE01,DS,015246-222-0002-00004,1,INFORMED CONSENT OBTAINED,INFORMED CONSENT OBTAINED,PROTOCOL MILESTONE,,,2018-04-17
CDISCCORE01,DS,015246-222-0002-00004,2,COMPLETED,COMPLETED,DISPOSITION EVENT,,SCREENING,2018-05-07
CDISCCORE01,DS,015246-222-0002-00004,3,CARDIAC ARREST,DEATH,DISPOSITION EVENT,,TREATMENT,
CDISCCORE01,DS,015246-888-0008-08888,1,INFORMED CONSENT OBTAINED,INFORMED CONSENT OBTAINED,PROTOCOL MILESTONE,,,2018-04-06
CDISCCORE01,DS,015246-888-0008-08888,2,INFORMED CONSENT FOR AMENDMENT ONE OBTAINED,INFORMED CONSENT OBTAINED,PROTOCOL MILESTONE,,,2019-08-15
CDISCCORE01,DS,015246-888-0008-08888,3,RANDOMIZED,RANDOMIZED,PROTOCOL MILESTONE,,SCREENING,2018-05-07T12:36
CDISCCORE01,DS,015246-888-0008-08888,4,COMPLETED,COMPLETED,DISPOSITION EVENT,STUDY PARTICIPATION,SCREENING,2019-03-30
CDISCCORE01,DS,015246-888-0008-08888,5,COMPLETED,COMPLETED,DISPOSITION EVENT,STUDY PARTICIPATION,TREATMENT,2019-04-30
CDISCCORE01,DS,015246-888-0008-08888,6,AUTOMOBILE ACCIDENT,DEATH,DISPOSITION EVENT,STUDY PARTICIPATION,FOLLOW-UP,2019-01-10
CDISCCORE01,DS,015246-999-0003-09999,1,INFORMED CONSENT OBTAINED,INFORMED CONSENT OBTAINED,PROTOCOL MILESTONE,,,2018-03-06
CDISCCORE01,DS,015246-999-0003-09999,2,COMPLETED,COMPLETED,DISPOSITION EVENT,,SCREENING,2018-03-30
CDISCCORE01,DS,015246-999-0003-09999,3,RANDOMIZED,RANDOMIZED,PROTOCOL MILESTONE,,,2018-03-30T13:05
CDISCCORE01,DS,015246-999-0003-09999,4,CARDIAC ARREST,ADVERSE EVENT,DISPOSITION EVENT,PREMATURE TREATMENT-DEX,TREATMENT,2018-09-03
CDISCCORE01,DS,015246-999-0003-09999,5,CARDIAC ARREST,DEATH,DISPOSITION EVENT,,FOLLOW-UP,2021-02-16
