{
    "rule": {
        "Authorities": [
            {
                "Organization": "CDISC",
                "Standards": [
                    {
                        "Name": "SENDIG",
                        "References": [
                            {
                                "Citations": [
                                    {
                                        "Document": "IG v3.0",
                                        "Item": "Domain Table Header",
                                        "Section": "8.5",
                                        "Cited_Guidance": "supp--.xpt, Supplemental Qualifiers for (domain name) - Relationship Datasets. One record per IDVAR, IDVARVAL, and QNAM value per subject per related domain, Tabulation."
                                    }
                                ],
                                "Origin": "SEND Conformance Rules",
                                "Version": "5.0",
                                "Rule_Identifier": {
                                    "Id": "SEND254",
                                    "Version": "1"
                                }
                            }
                        ],
                        "Version": "3.0"
                    },
                    {
                        "Name": "SENDIG",
                        "References": [
                            {
                                "Citations": [
                                    {
                                        "Document": "IG v3.1",
                                        "Item": "Domain Table Header",
                                        "Section": "8.3",
                                        "Cited_Guidance": "supp--.xpt, Supplemental Qualifiers for (domain name) - Relationship Datasets. One record per supplemental qualifier per related parent domain record(s), Tabulation."
                                    }
                                ],
                                "Origin": "SEND Conformance Rules",
                                "Version": "5.0",
                                "Rule_Identifier": {
                                    "Id": "SEND254.1",
                                    "Version": "1"
                                }
                            }
                        ],
                        "Version": "3.1"
                    },
                    {
                        "Name": "SENDIG",
                        "References": [
                            {
                                "Citations": [
                                    {
                                        "Document": "IG v3.1.1",
                                        "Item": "Domain Table Header",
                                        "Section": "8.3",
                                        "Cited_Guidance": "supp--.xpt, Supplemental Qualifiers for (domain name) - Relationship Datasets. One record per supplemental qualifier per related parent domain record(s), Tabulation."
                                    }
                                ],
                                "Origin": "SEND Conformance Rules",
                                "Version": "5.0",
                                "Rule_Identifier": {
                                    "Id": "SEND254.1",
                                    "Version": "1"
                                }
                            }
                        ],
                        "Version": "3.1.1"
                    },
                    {
                        "Name": "SENDIG-DART",
                        "References": [
                            {
                                "Citations": [
                                    {
                                        "Document": "IG v3.1",
                                        "Item": "Domain Table Header",
                                        "Section": "8.3",
                                        "Cited_Guidance": "supp--.xpt, Supplemental Qualifiers for (domain name) - Relationship Datasets. One record per supplemental qualifier per related parent domain record(s), Tabulation."
                                    }
                                ],
                                "Origin": "SEND Conformance Rules",
                                "Version": "5.0",
                                "Rule_Identifier": {
                                    "Id": "SEND254.1",
                                    "Version": "1"
                                }
                            }
                        ],
                        "Version": "1.1"
                    },
                    {
                        "Name": "SENDIG-DART",
                        "References": [
                            {
                                "Citations": [
                                    {
                                        "Document": "IG v3.1.1",
                                        "Item": "Domain Table Header",
                                        "Section": "8.3",
                                        "Cited_Guidance": "supp--.xpt, Supplemental Qualifiers for (domain name) - Relationship Datasets. One record per supplemental qualifier per related parent domain record(s), Tabulation."
                                    }
                                ],
                                "Origin": "SEND Conformance Rules",
                                "Version": "5.0",
                                "Rule_Identifier": {
                                    "Id": "SEND254.1",
                                    "Version": "1"
                                }
                            }
                        ],
                        "Version": "1.2"
                    },
                    {
                        "Name": "SENDIG-GENETOX",
                        "References": [
                            {
                                "Citations": [
                                    {
                                        "Document": "IG v3.1.1",
                                        "Item": "Domain Table Header",
                                        "Section": "8.3",
                                        "Cited_Guidance": "supp--.xpt, Supplemental Qualifiers for (domain name) - Relationship Datasets. One record per supplemental qualifier per related parent domain record(s), Tabulation."
                                    }
                                ],
                                "Origin": "SEND Conformance Rules",
                                "Version": "5.0",
                                "Rule_Identifier": {
                                    "Id": "SEND254.1",
                                    "Version": "1"
                                }
                            }
                        ],
                        "Version": "1.0"
                    },
                    {
                        "Name": "TIG",
                        "References": [
                            {
                                "Citations": [
                                    {
                                        "Document": "TIG v1.0",
                                        "Item": "Domain Table Header",
                                        "Section": "2.8.9.27",
                                        "Cited_Guidance": "supp--.xpt, Supplemental Qualifiers for [domain name] — Relationship. One record per IDVAR, IDVARVAL, and QNAM value per subject per related domain, Tabulation."
                                    }
                                ],
                                "Origin": "TIG Conformance Rules",
                                "Version": "1.0",
                                "Rule_Identifier": {
                                    "Id": "TIG0172",
                                    "Version": "1"
                                }
                            }
                        ],
                        "Substandard": "SEND",
                        "Version": "1.0"
                    }
                ]
            }
        ],
        "Check": {
            "any": [
                {
                    "all": [
                        {
                            "name": "USUBJID",
                            "operator": "non_empty"
                        },
                        {
                            "name": "QNAM",
                            "operator": "is_not_unique_set",
                            "value": [
                                "USUBJID",
                                "RDOMAIN",
                                "IDVAR",
                                "IDVARVAL"
                            ]
                        }
                    ]
                },
                {
                    "all": [
                        {
                            "name": "POOLID",
                            "operator": "non_empty"
                        },
                        {
                            "name": "QNAM",
                            "operator": "is_not_unique_set",
                            "value": [
                                "POOLID",
                                "RDOMAIN",
                                "IDVAR",
                                "IDVARVAL"
                            ]
                        }
                    ]
                }
            ]
        },
        "Core": {
            "Id": "CORE-000551",
            "Status": "Published",
            "Version": "1"
        },
        "Description": "There may be only be one record in a SUPP-- dataset with the same QNAM value within USUBJID or POOLID, RDOMAIN, IDVAR, IDVARVAL.",
        "Executability": "Fully Executable",
        "Outcome": {
            "Message": "Duplicate value of the combination of USUBJID or POOLID, RDOMAIN, IDVAR, IDVARVAL with QNAM",
            "Output_Variables": [
                "RDOMAIN",
                "IDVAR",
                "IDVARVAL"
            ]
        },
        "Scope": {
            "Classes": {
                "Include": [
                    "RELATIONSHIP"
                ]
            },
            "Domains": {
                "Include": [
                    "SUPP--"
                ]
            },
            "Use_Case": "NONCLIN"
        },
        "Sensitivity": "Record",
        "Rule_Type": "Record Data"
    },
    "datasets": [
        {
            "filename": "supplb.xpt",
            "label": "Supplemental Qualifiers for LB",
            "domain": "SUPPLB",
            "variables": [
                {
                    "name": "STUDYID",
                    "label": "Study Identifier",
                    "type": "Char",
                    "length": 10
                },
                {
                    "name": "RDOMAIN",
                    "label": "Related Domain Abbreviation",
                    "type": "Char",
                    "length": 2
                },
                {
                    "name": "USUBJID",
                    "label": "Unique Subject Identifier",
                    "type": "Char",
                    "length": 14
                },
                {
                    "name": "IDVAR",
                    "label": "Identifying Variable",
                    "type": "Char",
                    "length": 6
                },
                {
                    "name": "IDVARVAL",
                    "label": "Identifying Variable Value",
                    "type": "Char",
                    "length": 4
                },
                {
                    "name": "QNAM",
                    "label": "Qualifier Variable Name",
                    "type": "Char",
                    "length": 11
                },
                {
                    "name": "QLABEL",
                    "label": "Qualifier Variable Label",
                    "type": "Char",
                    "length": 49
                },
                {
                    "name": "QVAL",
                    "label": "Data Value",
                    "type": "Char",
                    "length": 1
                },
                {
                    "name": "QORIG",
                    "label": "Origin",
                    "type": "Char",
                    "length": 8
                },
                {
                    "name": "QEVAL",
                    "label": "Evaluator",
                    "type": "Char",
                    "length": 22
                }
            ],
            "records": {
                "STUDYID": [
                    "CDISC-TEST",
                    "CDISC-TEST",
                    "CDISC-TEST",
                    "CDISC-TEST",
                    "CDISC-TEST",
                    "CDISC-TEST",
                    "CDISC-TEST",
                    "CDISC-TEST",
                    "CDISC-TEST",
                    "CDISC-TEST"
                ],
                "RDOMAIN": [
                    "LB",
                    "LB",
                    "LB",
                    "LB",
                    "LB",
                    "LB",
                    "LB",
                    "LB",
                    "LB",
                    "LB"
                ],
                "USUBJID": [
                    "CDISC-TEST-001",
                    "CDISC-TEST-001",
                    "CDISC-TEST-001",
                    "CDISC-TEST-001",
                    "CDISC-TEST-001",
                    "CDISC-TEST-002",
                    "CDISC-TEST-002",
                    "CDISC-TEST-002",
                    "CDISC-TEST-002",
                    "CDISC-TEST-002"
                ],
                "IDVAR": [
                    "LBSEQ",
                    "LBSEQ",
                    "LBSEQ",
                    "LBSEQ",
                    "LBSEQ",
                    "LBSEQ",
                    "LBSEQ",
                    "LBSEQ",
                    "LBSEQ",
                    "LBSEQ"
                ],
                "IDVARVAL": [
                    "1",
                    "10",
                    "11",
                    "12",
                    "13",
                    "1",
                    "2",
                    "2",
                    "4",
                    "5"
                ],
                "QNAM": [
                    "BIOSIG1",
                    "BIOSIG2",
                    "BIOSIG3",
                    "BIOSIG4",
                    "BIOSIG5",
                    "BIOSIG1",
                    "BIOSIG2",
                    "BIOSIG1",
                    "BIOSIG4",
                    "BIOSIG5"
                ],
                "QLABEL": [
                    "Biological Significance 1",
                    "Biological Significance 2",
                    "Biological Significance 3",
                    "Biological Significance 4",
                    "Biological Significance 5",
                    "Biological Significance 1",
                    "Biological Significance 2",
                    "Biological Significance 3",
                    "Biological Significance 4",
                    "Biological Significance 5"
                ],
                "QVAL": [
                    "N",
                    "Y",
                    "Y",
                    "N",
                    "N",
                    "Y",
                    "Y",
                    "Y",
                    "Y",
                    "D"
                ],
                "QORIG": [
                    "Assigned",
                    "Assigned",
                    "Assigned",
                    "Assigned",
                    "Assigned",
                    "Assigned",
                    "Assigned",
                    "Assigned",
                    "Assigned",
                    "Assigned"
                ],
                "QEVAL": [
                    "CLINICAL STUDY SPONSOR",
                    "CLINICAL STUDY SPONSOR",
                    "CLINICAL STUDY SPONSOR",
                    "CLINICAL STUDY SPONSOR",
                    "CLINICAL STUDY SPONSOR",
                    "CLINICAL STUDY SPONSOR",
                    "CLINICAL STUDY SPONSOR",
                    "CLINICAL STUDY SPONSOR",
                    "CLINICAL STUDY SPONSOR",
                    "CLINICAL STUDY SPONSOR"
                ]
            }
        },
        {
            "filename": "suppdm.xpt",
            "label": "Supplemental Qualifiers for DM",
            "domain": "SUPPDM",
            "variables": [
                {
                    "name": "STUDYID",
                    "label": "Study Identifier",
                    "type": "Char",
                    "length": 12
                },
                {
                    "name": "RDOMAIN",
                    "label": "Related Domain Abbreviation",
                    "type": "Char",
                    "length": 6
                },
                {
                    "name": "USUBJID",
                    "label": "Unique Subject Identifier",
                    "type": "Char",
                    "length": 8
                },
                {
                    "name": "IDVAR",
                    "label": "Identifying Variable",
                    "type": "Char",
                    "length": 200
                },
                {
                    "name": "IDVARVAL",
                    "label": "Identifying Variable Value",
                    "type": "Char",
                    "length": 200
                },
                {
                    "name": "QNAM",
                    "label": "Qualifier Variable Name",
                    "type": "Char",
                    "length": 5
                },
                {
                    "name": "QLABEL",
                    "label": "Qualifier Variable Label",
                    "type": "Char",
                    "length": 40
                },
                {
                    "name": "QVAL",
                    "label": "Data Value",
                    "type": "Char",
                    "length": 41
                },
                {
                    "name": "QORIG",
                    "label": "Origin",
                    "type": "Char",
                    "length": 13
                },
                {
                    "name": "QEVAL",
                    "label": "Evaluator",
                    "type": "Char",
                    "length": 200
                }
            ],
            "records": {
                "STUDYID": [
                    "CDISCPILOT01",
                    "CDISCPILOT01",
                    "CDISCPILOT01"
                ],
                "RDOMAIN": [
                    "DM",
                    "DM",
                    "DM"
                ],
                "USUBJID": [
                    "CDISC008",
                    "CDISC008",
                    "CDISC008"
                ],
                "IDVAR": [
                    "",
                    "",
                    ""
                ],
                "IDVARVAL": [
                    "",
                    "",
                    ""
                ],
                "QNAM": [
                    "RACE1",
                    "RACE2",
                    "RACE3"
                ],
                "QLABEL": [
                    "Race 1",
                    "Race 2",
                    "Race 3"
                ],
                "QVAL": [
                    "ASIAN",
                    "ASIAN",
                    "ASIAN"
                ],
                "QORIG": [
                    "CRF",
                    "CRF",
                    "CRF"
                ],
                "QEVAL": [
                    "",
                    "",
                    ""
                ]
            }
        }
    ],
    "standard": {
        "product": "sendig",
        "version": "3-1"
    },
    "codelists": []
}