STUDYID,DOMAIN,USUBJID,LBSEQ,LBTESTCD,LBTEST,LBCAT,LBORRES,LBORRESU,LBORNRLO,LBORNRHI,LBSTRESC,LBSTRESN,LBSTRESU,LBSTNRLO,LBSTNRHI,LBNRIND,LBLOBXFL,VISITNUM,VISIT,EPOCH,LBDTC,LBDY
CDISCPILOT01,LB,CDISC001,1,ALB,Albumin,CHEMISTRY,3.9,g/dL,3.5,4.6,39,39,g/L,35,46,NORMAL,Y,1,SCREENING 1,SCREENING,2012-11-23T11:20,-7
CDISCPILOT01,LB,CDISC001,2,ALP,Alkaline Phosphatase,CHEMISTRY,93,U/L,35,115,93,93,U/L,35,115,NORMAL,Y,1,SCREENING 1,SCREENING,2012-11-23T11:20,-7
CDISCPILOT01,LB,CDISC001,3,ALT,Alanine Aminotransferase,CHEMISTRY,18,U/L,6,35,18,18,U/L,6,35,NORMAL,,1,SCREENING 1,SCREENING,2012-11-23T11:20,-7
CDISCPILOT01,LB,CDISC001,4,AST,Aspartate Aminotransferase,CHEMISTRY,26,U/L,11,36,26,26,U/L,11,36,NORMAL,Y,1,SCREENING 1,SCREENING,2012-11-23T11:20,-7
CDISCPILOT01,LB,CDISC001,5,BASO,Basophils,HEMATOLOGY,0.03,10^9/L,0,0.2,0.03,0.03,10^9/L,0,0.2,NORMAL,Y,1,SCREENING 1,SCREENING,2012-11-23T11:20,-7
CDISCPILOT01,LB,CDISC001,6,BILI,Bilirubin,CHEMISTRY,0.5,mg/dL,0.2,1.2,8.55,8.549999999999999,umol/L,3,21,NORMAL,,1,SCREENING 1,SCREENING,2012-11-23T11:20,-7
CDISCPILOT01,LB,CDISC001,7,UREAN,Urea Nitrogen,CHEMISTRY,21,mg/dL,4,24,7.497,7.497,mmol/L,1.4,8.6,NORMAL,,1,SCREENING 1,SCREENING,2012-11-23T11:20,-7
CDISCPILOT01,LB,CDISC001,8,CA,Calcium,CHEMISTRY,9.1,mg/dL,8.4,10.3,2.27045,2.27045,mmol/L,2.1,2.57,NORMAL,,1,SCREENING 1,SCREENING,2012-11-23T11:20,-7
CDISCPILOT01,LB,CDISC001,9,CHOL,Cholesterol,CHEMISTRY,254,mg/dL,149,286,6.56844,6.56844,mmol/L,3.85,7.4,NORMAL,Y,1,SCREENING 1,SCREENING,2012-11-23T11:20,-7
CDISCPILOT01,LB,CDISC001,10,CK,Creatine Kinase,CHEMISTRY,79,U/L,22,198,79,79,U/L,22,198,NORMAL,Y,1,SCREENING 1,SCREENING,2012-11-23T11:20,-7
