STUDYID,DOMAIN,USUBJID,MHSEQ,MHTERM,MHCAT,MHPRESP,MHOCCUR,MHDTC,MHSTDTC
XYZ,MH,XYZ-001-001,1,ASTHMA,RESPIRATORY,Y,Y,2013-05-15,2009-07
XYZ,MH,XYZ-001-001,2,CHRONIC OBSTRUCTIVE PULMONARY DISEASE,RESPIRATORY,Y,N,2013-05-15,
