STUDYID,DOMAIN,USUBJID,CMSEQ,CMTRT,CMINDC,CMDOSE,CMDOSU,CMDOSFRQ,CMROUTE,EPOCH,CMDTC,CMSTDTC,CMENDTC,CMDY,CMSTDY2,CMENDY,CMSTRTPT,CMSTTPT,CMENRTPT,CMENTPT
CDISCPILOT01,CM,CDISC001,1,ASPIRIN,PROPHYLAXIS OR NON-THERAPEUTIC USE,1,TABLET,QD,ORAL,SCREENING,2011,2011,2013-04-29,,,151,BEFORE,SCREENING,,
CDISCPILOT01,CM,CDISC001,2,METAMUCIL,PROPHYLAXIS OR NON-THERAPEUTIC USE,1,TABLET,PRN,ORAL,SCREENING,2012-08,2012-08,,,,,,,ONGOING,
CDISCPILOT01,CM,CDISC001,3,"HYDROCORTISONE, TOPICAL",PROPHYLAXIS OR NON-THERAPEUTIC USE,1,TABLET,BID,TOPICAL,TREATMENT,2013-01-11,2013-01-11,,,43,,BEFORE,SCREENING,ONGOING,
CDISCPILOT01,CM,CDISC001,4,HYTRIN,PROPHYLAXIS OR NON-THERAPEUTIC USE,2,TABLET,Q4H,ORAL,TREATMENT,2013-04-19,2013-04-19,2013-05-14,,141,166,,,,
