STUDYID,DOMAIN,USUBJID,VSSEQ,VSTESTCD,VSTEST,VSPOS,VSORRES,VSORRESU,VSSTRESC,VSSTRESN,VSSTRESU,VSSTAT,VSLOC,VSLOBXFL,VSREPNUM,VISITNUM,VISIT,EPOCH,VSDTC,VSDY,MIDS
CDISCPILOT01,VS,CDISC001,1,DIABP,Diastolic Blood Pressure,STANDING,71,mmHg,71,71,mmHg,,,,,1,SCREENING 1,SCREENING,2012-11-23,-7,YES
CDISCPILOT01,VS,CDISC001,2,DIABP,Diastolic Blood Pressure,STANDING,71,mmHg,71,71,mmHg,,,,,2,SCREENING 2,SCREENING,2012-11-28,-2,YES
CDISCPILOT01,VS,CDISC001,3,DIABP,Diastolic Blood Pressure,STANDING,83,mmHg,83,83,mmHg,,,Y,,3,BASELINE,SCREENING,2012-11-30,1,YES
CDISCPILOT01,VS,CDISC001,4,DIABP,Diastolic Blood Pressure,STANDING,79,mmHg,79,79,mmHg,,,,,4,WEEK 2,TREATMENT,2012-12-13,14,YES
CDISCPILOT01,VS,CDISC001,5,DIABP,Diastolic Blood Pressure,STANDING,68,mmHg,68,68,mmHg,,,,,5,WEEK 4,TREATMENT,2012-12-26,27,YES
CDISCPILOT01,VS,CDISC001,6,DIA_BP,Diastolic Blood Pressure,SUPINE,77,mmHg,77,77,mmHg,,,,1,7,WEEK 6,TREATMENT,2013-01-10,42,YES
CDISCPILOT01,VS,CDISC001,7,DIABP,Diastolic Blood Pressure,STANDING,71,mmHg,71,71,mmHg,,,,2,7,WEEK 6,TREATMENT,2013-01-10,42,YES
CDISCPILOT01,VS,CDISC001,8,DIABP,Diastolic Blood Pressure,STANDING,69,mmHg,69,69,mmHg,,,,3,7,WEEK 6,TREATMENT,2013-01-10,42,YES
CDISCPILOT01,VS,CDISC001,9,DIABP,Diastolic Blood Pressure,SUPINE,76,mmHg,76,76,mmHg,,,,1,8,WEEK 8,TREATMENT,2013-01-23,55,YES
CDISCPILOT01,VS,CDISC001,20,PULSE,Pulse Rate,STANDING,51,beats/min,51,51,beats/min,,,,,5,WEEK 4,TREATMENT,2012-12-26,27,YES
CDISCPILOT01,VS,CDISC001,21,PULSE,Pulse Rate,SUPINE,52,beats/min,52,52,beats/min,,,,1,7,WEEK 6,TREATMENT,2013-01-10,42,
CDISCPILOT01,VS,CDISC001,22,PULSE,Pulse Rate,STANDING,62,beats/min,62,62,beats/min,,,,2,7,WEEK 6,TREATMENT,2013-01-10,42,
CDISCPILOT01,VS,CDISC001,23,PULSE,Pulse Rate,STANDING,62,beats/min,62,62,beats/min,,,,3,7,WEEK 6,TREATMENT,2013-01-10,42,
CDISCPILOT01,VS,CDISC001,24,PULSE,Pulse Rate,SUPINE,50,beats/min,50,50,beats/min,,,,1,8,WEEK 8,TREATMENT,2013-01-23,55,
CDISCPILOT01,VS,CDISC001,25,PULSE,Pulse Rate,STANDING,52,beats/min,52,52,beats/min,,,,2,8,WEEK 8,TREATMENT,2013-01-23,55,
CDISCPILOT01,VS,CDISC001,26,PULSE,Pulse Rate,STANDING,54,beats/min,54,54,beats/min,,,,3,8,WEEK 8,TREATMENT,2013-01-23,55,
CDISCPILOT01,VS,CDISC001,27,PULSE,Pulse Rate,SUPINE,79,beats/min,79,79,beats/min,,,,1,201,EARLY DISCONTINUATION RETRIEVAL,TREATMENT,2013-05-20,172,
CDISCPILOT01,VS,CDISC001,28,PULSE,Pulse Rate,STANDING,98,beats/min,98,98,beats/min,,,,2,201,EARLY DISCONTINUATION RETRIEVAL,TREATMENT,2013-05-20,172,
CDISCPILOT01,VS,CDISC001,29,PULSE,Pulse Rate,STANDING,94,beats/min,94,94,beats/min,,,,3,201,EARLY DISCONTINUATION RETRIEVAL,TREATMENT,2013-05-20,172,
