STUDYID,DOMAIN,USUBJID,EXSEQ,EXLNKID,EXTRT,EXDOSE,EXDOSTXT,EXDOSU,EXDOSFRM,EXROUTE,EXSTDTC,EXENDTC,EXSTDY,EXENDY
ABC,EX,ABC123,1,A2,CARF,20.1183431952663,,mg/m2,"INJECTION, POWDER, FOR SOLUTION",INTRAVENOUS,2018-04-17T12:45,2018-04-17T13:15,1,1
ABC,EX,ABC123,2,A2,DEXA,20,,mg,INJECTION,INTRAVENOUS,2018-04-17T09:25,2018-04-17T09:25,1,1
ABC,EX,ABC456,1,A3,CARF,20.3389830508475,,mg/m2,"INJECTION, POWDER, FOR SOLUTION",INTRAVENOUS,2018-04-18T15:30,2018-04-18T16:00,1,1
ABC,EX,ABC456,2,A3,DEXA,20,,mg,INJECTION,INTRAVENOUS,2018-04-18T09:30,2018-04-18T09:30,1,1
ABC,EX,SSS900,1,,ISA,15,,mg,INJECTION,INTRAVENOUS,2018-04-18T09:30,2018-04-18T09:30,1,1
