STUDYID,RDOMAIN,USUBJID,IDVAR,IDVARVAL,QNAM,QLABEL,QVAL,QORIG,QEVAL
CDISC-TEST,DM,S002,,,CETHNIC,Collected Ethnicity,NOT HISPANIC OR LATINO,CRF,
CDISC-TEST,DM,S003,,,CETHNIC,Collected Ethnicity,HISPANIC OR LATINO,CRF,
