STUDYID,USUBJID,FASFL,SAFFL,ITTFL,PPROTFL,COMPLFL,RANDFL,ENRLFL,ENRLFN,AGE,AGEU,SEX,TRT01P,TRT01PN,TRT01A,TRT01AN,TRTSEQP,TRTSEQA,TRTSEQAN,TR01AG1,TR01AG1N
TEST1,1001,Y,Y,Y,Y,Y,Y,Y,1,52,Y,F,A,1,A,1,AB,AB,1,A,1
TEST1,1002,y,Y,Y,N,Y,Y,Y,1,53,Y,M,B,2,A,2,AB,AB,1,A,1
