STUDYID,RDOMAIN,USUBJID,IDVAR,IDVARVAL,QNAM,QLABEL,QVAL,QORIG,QEVAL
CDISCPILOT01,DM,CDISC008,,,RACE1111,Race 1,ASIAN,CRF,
CDISCPILOT01,DM,CDISC008,,,RACE2,Race 2,BLACK OR AFRICAN AMERICAN,CRF,
CDISCPILOT01,DM,CDISC008,,,RAC_3,Race 3,WHITE,CRF,
