{
    "rule": {
        "Authorities": [
            {
                "Organization": "CDISC",
                "Standards": [
                    {
                        "Name": "SDTMIG",
                        "References": [
                            {
                                "Citations": [
                                    {
                                        "Document": "IG v3.4",
                                        "Item": "NA",
                                        "Section": "2.5",
                                        "Cited_Guidance": "The SDTM allows for the inclusion of a sponsor's non-SDTM variables using the Supplemental Qualifiers special-purpose dataset structure"
                                    }
                                ],
                                "Origin": "SDTM and SDTMIG Conformance Rules",
                                "Version": "2.0",
                                "Rule_Identifier": {
                                    "Id": "CG0314",
                                    "Version": "1"
                                }
                            }
                        ],
                        "Version": "3.4"
                    },
                    {
                        "Name": "SDTMIG",
                        "References": [
                            {
                                "Citations": [
                                    {
                                        "Document": "IG v3.2",
                                        "Section": "2.5",
                                        "Cited_Guidance": "The SDTM allows for the inclusion of the sponsors non-SDTM variables using the Supplemental Qualifiers special-purpose dataset structure, described in Section 8; 8.4, Relating Non-Standard Variables Values To A Parent Domain."
                                    }
                                ],
                                "Origin": "SDTM and SDTMIG Conformance Rules",
                                "Version": "2.0",
                                "Rule_Identifier": {
                                    "Id": "CG0314",
                                    "Version": "1"
                                }
                            }
                        ],
                        "Version": "3.2"
                    },
                    {
                        "Name": "SDTMIG",
                        "References": [
                            {
                                "Citations": [
                                    {
                                        "Document": "IG v3.3",
                                        "Section": "2.5",
                                        "Cited_Guidance": "The SDTM allows for the inclusion of a sponsor's non-SDTM variables using the Supplemental Qualifiers special purpose dataset structure, described in Section 8.4, Relating Non-Standard Variables Values to a Parent Domain."
                                    },
                                    {
                                        "Document": "Model v1.7",
                                        "Section": "2.1",
                                        "Cited_Guidance": "New sponsor-defined variables must not be added, and existing variables must not be renamed or modified for novel usage."
                                    }
                                ],
                                "Origin": "SDTM and SDTMIG Conformance Rules",
                                "Version": "2.0",
                                "Rule_Identifier": {
                                    "Id": "CG0314",
                                    "Version": "1"
                                }
                            }
                        ],
                        "Version": "3.3"
                    },
                    {
                        "Name": "SENDIG",
                        "References": [
                            {
                                "Citations": [
                                    {
                                        "Document": "SENDIG v3.0",
                                        "Item": "QNAM CDISC Notes",
                                        "Section": "8.5",
                                        "Cited_Guidance": "The value in QNAM may not be the same as any variable name defined in another domain or the SDTM."
                                    }
                                ],
                                "Origin": "SEND Conformance Rules",
                                "Version": "5.0",
                                "Rule_Identifier": {
                                    "Id": "SEND274",
                                    "Version": "1"
                                }
                            }
                        ],
                        "Version": "3.0"
                    },
                    {
                        "Name": "SENDIG",
                        "References": [
                            {
                                "Citations": [
                                    {
                                        "Document": "SENDIG v3.1",
                                        "Item": "QNAM CDISC Notes",
                                        "Section": "8.3",
                                        "Cited_Guidance": "The value in QNAM may not be the same as any variable name defined in another domain or the SDTM."
                                    }
                                ],
                                "Origin": "SEND Conformance Rules",
                                "Version": "5.0",
                                "Rule_Identifier": {
                                    "Id": "SEND274.1",
                                    "Version": "1"
                                }
                            }
                        ],
                        "Version": "3.1"
                    },
                    {
                        "Name": "SENDIG",
                        "References": [
                            {
                                "Citations": [
                                    {
                                        "Document": "SENDIG v3.1.1",
                                        "Item": "QNAM CDISC Notes",
                                        "Section": "8.3",
                                        "Cited_Guidance": "The value in QNAM may not be the same as any variable name defined in another domain or the SDTM."
                                    }
                                ],
                                "Origin": "SEND Conformance Rules",
                                "Version": "5.0",
                                "Rule_Identifier": {
                                    "Id": "SEND274.1",
                                    "Version": "1"
                                }
                            }
                        ],
                        "Version": "3.1.1"
                    },
                    {
                        "Name": "SENDIG-GENETOX",
                        "References": [
                            {
                                "Citations": [
                                    {
                                        "Document": "SENDIG v3.1.1",
                                        "Item": "QNAM CDISC Notes",
                                        "Section": "8.3",
                                        "Cited_Guidance": "The value in QNAM may not be the same as any variable name defined in another domain or the SDTM."
                                    }
                                ],
                                "Origin": "SEND Conformance Rules",
                                "Version": "5.0",
                                "Rule_Identifier": {
                                    "Id": "SEND274.1",
                                    "Version": "1"
                                }
                            }
                        ],
                        "Version": "1.0"
                    },
                    {
                        "Name": "SENDIG-DART",
                        "References": [
                            {
                                "Citations": [
                                    {
                                        "Document": "SENDIG v3.1",
                                        "Item": "QNAM CDISC Notes",
                                        "Section": "8.3",
                                        "Cited_Guidance": "The value in QNAM may not be the same as any variable name defined in another domain or the SDTM."
                                    }
                                ],
                                "Origin": "SEND Conformance Rules",
                                "Version": "5.0",
                                "Rule_Identifier": {
                                    "Id": "SEND274.1",
                                    "Version": "1"
                                }
                            }
                        ],
                        "Version": "1.1"
                    },
                    {
                        "Name": "SENDIG-DART",
                        "References": [
                            {
                                "Citations": [
                                    {
                                        "Document": "SENDIG v3.1.1",
                                        "Item": "QNAM CDISC Notes",
                                        "Section": "8.3",
                                        "Cited_Guidance": "The value in QNAM may not be the same as any variable name defined in another domain or the SDTM."
                                    }
                                ],
                                "Origin": "SEND Conformance Rules",
                                "Version": "5.0",
                                "Rule_Identifier": {
                                    "Id": "SEND274.1",
                                    "Version": "1"
                                }
                            }
                        ],
                        "Version": "1.2"
                    }
                ]
            }
        ],
        "Check": {
            "all": [
                {
                    "name": "QNAM",
                    "operator": "is_contained_by",
                    "value": "$model_variables"
                }
            ]
        },
        "Core": {
            "Id": "CDISC.SDTMIG.CG0314",
            "Status": "Draft",
            "Version": "1"
        },
        "Description": "Raise an error when SUPP--.QNAM is present in dataset, but value of SUPP--.QNAM is equal to a variable name defined in the corresponding SDTM version.",
        "Executability": "Fully Executable",
        "Operations": [
            {
                "id": "$model_variables",
                "operator": "get_parent_model_column_order"
            }
        ],
        "Outcome": {
            "Message": "SUPP--.QNAM is present in the dataset, but the value of SUPP--.QNAM equals a variable name defined in the corresponding SDTM version.",
            "Output_Variables": [
                "QNAM",
                "$model_variables"
            ]
        },
        "Scope": {
            "Classes": {
                "Include": [
                    "RELATIONSHIP"
                ]
            },
            "Domains": {
                "Include": [
                    "SUPP--"
                ]
            }
        },
        "Sensitivity": "Record",
        "Rule_Type": "Record Data"
    },
    "datasets": [
        {
            "filename": "supplb.xpt",
            "label": "Supplemental Qualifiers for Laboratory",
            "domain": "SUPPLB",
            "variables": [
                {
                    "name": "STUDYID",
                    "label": "Study Identifier",
                    "type": "Char",
                    "length": 50
                },
                {
                    "name": "RDOMAIN",
                    "label": "Related Domain Abbreviation",
                    "type": "Char",
                    "length": 50
                },
                {
                    "name": "USUBJID",
                    "label": "Unique Subject Identifier",
                    "type": "Char",
                    "length": 50
                },
                {
                    "name": "IDVAR",
                    "label": "Identifying Variable",
                    "type": "Char",
                    "length": 50
                },
                {
                    "name": "IDVARVAL",
                    "label": "Identifying Variable Value",
                    "type": "Char",
                    "length": 50
                },
                {
                    "name": "QNAM",
                    "label": "Qualifier Variable Name",
                    "type": "Char",
                    "length": 50
                },
                {
                    "name": "QLABEL",
                    "label": "Qualifier Variable Label",
                    "type": "Char",
                    "length": 50
                },
                {
                    "name": "QVAL",
                    "label": "Data Value",
                    "type": "Char",
                    "length": 50
                },
                {
                    "name": "QORIG",
                    "label": "Origin",
                    "type": "Char",
                    "length": 50
                },
                {
                    "name": "QEVAL",
                    "label": "Evaluator",
                    "type": "Char",
                    "length": 50
                }
            ],
            "records": {
                "STUDYID": [
                    "CDISC-PILOT-01",
                    "CDISC-PILOT-01"
                ],
                "RDOMAIN": [
                    "LB",
                    "LB"
                ],
                "USUBJID": [
                    "S001",
                    "S001"
                ],
                "IDVAR": [
                    "LBSEQ",
                    "LBSEQ"
                ],
                "IDVARVAL": [
                    "1",
                    "1"
                ],
                "QNAM": [
                    "LBCLOTH",
                    "LBSTATX"
                ],
                "QLABEL": [
                    "Other Clinically Significant",
                    "Status X"
                ],
                "QVAL": [
                    "Y",
                    "Y"
                ],
                "QORIG": [
                    "CRF",
                    "CRF"
                ],
                "QEVAL": [
                    "",
                    ""
                ]
            }
        },
        {
            "filename": "lb.xpt",
            "label": "Labotory Results",
            "domain": "LB",
            "variables": [
                {
                    "name": "STUDYID",
                    "label": "Study Identifier",
                    "type": "Char",
                    "length": 50
                },
                {
                    "name": "DOMAIN",
                    "label": "Domain Abbreviation",
                    "type": "Char",
                    "length": 50
                },
                {
                    "name": "USUBJID",
                    "label": "Unique Subject Identifier",
                    "type": "Char",
                    "length": 50
                },
                {
                    "name": "LBSEQ",
                    "label": "Sequence Number",
                    "type": "Num",
                    "length": 8
                },
                {
                    "name": "LBGRPID",
                    "label": "Group ID",
                    "type": "Char",
                    "length": 50
                },
                {
                    "name": "LBREFID",
                    "label": "Specimen ID",
                    "type": "Char",
                    "length": 50
                },
                {
                    "name": "LBSPID",
                    "label": "Sponsor-Defined Identifier",
                    "type": "Char",
                    "length": 50
                },
                {
                    "name": "LBTESTCD",
                    "label": "Lab Test or Examination Short Name",
                    "type": "Char",
                    "length": 50
                },
                {
                    "name": "LBTEST",
                    "label": "Lab Test or Examination Name",
                    "type": "Char",
                    "length": 50
                },
                {
                    "name": "LBORRES",
                    "label": "Result or Finding in Original Units",
                    "type": "Char",
                    "length": 50
                },
                {
                    "name": "LBORRESU",
                    "label": "Original Units",
                    "type": "Char",
                    "length": 50
                },
                {
                    "name": "LBREASND",
                    "label": "Reason Test Not Done",
                    "type": "Char",
                    "length": 50
                },
                {
                    "name": "LBNAM",
                    "label": "Vendor Name",
                    "type": "Char",
                    "length": 50
                },
                {
                    "name": "LBLOINC",
                    "label": "LOINC Code",
                    "type": "Char",
                    "length": 50
                },
                {
                    "name": "LBSPEC",
                    "label": "Specimen Type",
                    "type": "Char",
                    "length": 50
                },
                {
                    "name": "LBSPCCND",
                    "label": "Specimen Condition",
                    "type": "Char",
                    "length": 50
                },
                {
                    "name": "LBSPCUFL",
                    "label": "Specimen Usability for the Test",
                    "type": "Char",
                    "length": 50
                },
                {
                    "name": "LBMETHOD",
                    "label": "Method of Test or Examination",
                    "type": "Char",
                    "length": 50
                },
                {
                    "name": "LBANMETH",
                    "label": "Analysis Method",
                    "type": "Char",
                    "length": 50
                },
                {
                    "name": "LBTMTHSN",
                    "label": "Test Method Sensitivity",
                    "type": "Char",
                    "length": 50
                },
                {
                    "name": "LBLOBXFL",
                    "label": "Last Observation Before Exposure Flag",
                    "type": "Char",
                    "length": 50
                },
                {
                    "name": "LBBLFL",
                    "label": "Baseline Flag",
                    "type": "Char",
                    "length": 50
                },
                {
                    "name": "LBFAST",
                    "label": "Fasting Status",
                    "type": "Char",
                    "length": 50
                },
                {
                    "name": "LBDRVFL",
                    "label": "Derived Flag",
                    "type": "Char",
                    "length": 50
                },
                {
                    "name": "LBTOX",
                    "label": "Toxicity",
                    "type": "Char",
                    "length": 50
                },
                {
                    "name": "LBTOXGR",
                    "label": "Standard Toxicity Grade",
                    "type": "Char",
                    "length": 50
                },
                {
                    "name": "LBCLSIG",
                    "label": "Clinically Significant, Collected",
                    "type": "Char",
                    "length": 50
                },
                {
                    "name": "VISITNUM",
                    "label": "Visit Number",
                    "type": "Num",
                    "length": 8
                },
                {
                    "name": "VISIT",
                    "label": "Visit Name",
                    "type": "Char",
                    "length": 50
                },
                {
                    "name": "VISITDY",
                    "label": "Planned Study Day of Visit",
                    "type": "Num",
                    "length": 8
                },
                {
                    "name": "TAETORD",
                    "label": "Planned Order of Element within Arm",
                    "type": "Num",
                    "length": 8
                },
                {
                    "name": "EPOCH",
                    "label": "Epoch",
                    "type": "Char",
                    "length": 50
                },
                {
                    "name": "LBDTC",
                    "label": "Date/Time of Specimen Collection",
                    "type": "Char",
                    "length": 50
                },
                {
                    "name": "LBENDTC",
                    "label": "End Date/Time of Specimen Collection",
                    "type": "Char",
                    "length": 50
                },
                {
                    "name": "LBDY",
                    "label": "Study Day of Specimen Collection",
                    "type": "Num",
                    "length": 8
                },
                {
                    "name": "LBENDY",
                    "label": "Study Day of End of Observation",
                    "type": "Num",
                    "length": 8
                },
                {
                    "name": "LBTPT",
                    "label": "Planned Time Point Name",
                    "type": "Char",
                    "length": 50
                },
                {
                    "name": "LBTPTNUM",
                    "label": "Planned Time Point Number",
                    "type": "Num",
                    "length": 8
                },
                {
                    "name": "LBELTM",
                    "label": "Planned Elapsed Time from Time Point Ref",
                    "type": "Char",
                    "length": 50
                },
                {
                    "name": "LBTPTREF",
                    "label": "Time Point Reference",
                    "type": "Char",
                    "length": 50
                },
                {
                    "name": "LBRFTDTC",
                    "label": "Date/Time of Reference Time Point",
                    "type": "Char",
                    "length": 50
                },
                {
                    "name": "LBPTFL",
                    "label": "Point in Time Flag",
                    "type": "Char",
                    "length": 50
                },
                {
                    "name": "LBPDUR",
                    "label": "Planned Duration",
                    "type": "Char",
                    "length": 50
                }
            ],
            "records": {
                "STUDYID": [
                    "CDISC-PILOT-01",
                    "CDISC-PILOT-01"
                ],
                "DOMAIN": [
                    "LB",
                    "LB"
                ],
                "USUBJID": [
                    "S001",
                    "S001"
                ],
                "LBSEQ": [
                    321,
                    320
                ],
                "LBGRPID": [
                    "21",
                    "20"
                ],
                "LBREFID": [
                    "",
                    ""
                ],
                "LBSPID": [
                    "",
                    ""
                ],
                "LBTESTCD": [
                    "",
                    ""
                ],
                "LBTEST": [
                    "",
                    ""
                ],
                "LBORRES": [
                    "",
                    ""
                ],
                "LBORRESU": [
                    "",
                    ""
                ],
                "LBREASND": [
                    "",
                    ""
                ],
                "LBNAM": [
                    "",
                    ""
                ],
                "LBLOINC": [
                    "",
                    ""
                ],
                "LBSPEC": [
                    "",
                    ""
                ],
                "LBSPCCND": [
                    "",
                    ""
                ],
                "LBSPCUFL": [
                    "",
                    ""
                ],
                "LBMETHOD": [
                    "",
                    ""
                ],
                "LBANMETH": [
                    "",
                    ""
                ],
                "LBTMTHSN": [
                    "",
                    ""
                ],
                "LBLOBXFL": [
                    "",
                    ""
                ],
                "LBBLFL": [
                    "",
                    ""
                ],
                "LBFAST": [
                    "",
                    ""
                ],
                "LBDRVFL": [
                    "",
                    ""
                ],
                "LBTOX": [
                    "",
                    ""
                ],
                "LBTOXGR": [
                    "",
                    ""
                ],
                "LBCLSIG": [
                    "",
                    ""
                ],
                "VISITNUM": [
                    null,
                    null
                ],
                "VISIT": [
                    "",
                    ""
                ],
                "VISITDY": [
                    null,
                    null
                ],
                "TAETORD": [
                    null,
                    null
                ],
                "EPOCH": [
                    "",
                    ""
                ],
                "LBDTC": [
                    "",
                    ""
                ],
                "LBENDTC": [
                    "",
                    ""
                ],
                "LBDY": [
                    null,
                    null
                ],
                "LBENDY": [
                    null,
                    null
                ],
                "LBTPT": [
                    "",
                    ""
                ],
                "LBTPTNUM": [
                    null,
                    null
                ],
                "LBELTM": [
                    "",
                    ""
                ],
                "LBTPTREF": [
                    "",
                    ""
                ],
                "LBRFTDTC": [
                    "",
                    ""
                ],
                "LBPTFL": [
                    "",
                    ""
                ],
                "LBPDUR": [
                    "",
                    ""
                ]
            }
        },
        {
            "filename": "ae.xpt",
            "label": "Adverse Events",
            "domain": "AE",
            "variables": [
                {
                    "name": "STUDYID",
                    "label": "Study Identifier",
                    "type": "Char",
                    "length": 10
                },
                {
                    "name": "DOMAIN",
                    "label": "Domain Abbreviation",
                    "type": "Char",
                    "length": 2
                },
                {
                    "name": "USUBJID",
                    "label": "Unique Subject Identifier",
                    "type": "Char",
                    "length": 14
                },
                {
                    "name": "AESEQ",
                    "label": "Sequence Number",
                    "type": "Num",
                    "length": 8
                },
                {
                    "name": "AESPID",
                    "label": "Sponsor-Defined Identifier",
                    "type": "Char",
                    "length": 4
                },
                {
                    "name": "AETERM",
                    "label": "Reported Term for the Adverse Event",
                    "type": "Char",
                    "length": 38
                },
                {
                    "name": "AELLT",
                    "label": "Lowest Level Term",
                    "type": "Char",
                    "length": 38
                },
                {
                    "name": "AELLTCD",
                    "label": "Lowest Level Term Code",
                    "type": "Num",
                    "length": 8
                },
                {
                    "name": "AEDECOD",
                    "label": "Dictionary-Derived Term",
                    "type": "Char",
                    "length": 38
                },
                {
                    "name": "AESEV",
                    "label": "Severity/Intensity",
                    "type": "Char",
                    "length": 8
                },
                {
                    "name": "AESER",
                    "label": "Serious Event",
                    "type": "Char",
                    "length": 1
                },
                {
                    "name": "AEACN",
                    "label": "Action Taken with Study Treatment",
                    "type": "Char",
                    "length": 1
                },
                {
                    "name": "AEREL",
                    "label": "Causality",
                    "type": "Char",
                    "length": 1
                },
                {
                    "name": "AEOUT",
                    "label": "Outcome of Adverse Event",
                    "type": "Char",
                    "length": 26
                },
                {
                    "name": "AESHOSP",
                    "label": "Requires or Prolongs Hospitalization",
                    "type": "Char",
                    "length": 1
                },
                {
                    "name": "AESTDTC",
                    "label": "Start Date/Time of Adverse Event",
                    "type": "Char",
                    "length": 10
                }
            ],
            "records": {
                "STUDYID": [
                    "CDISCPILOT01",
                    "CDISCPILOT01"
                ],
                "DOMAIN": [
                    "AE",
                    "AE"
                ],
                "USUBJID": [
                    "CDISC001",
                    "CDISC002"
                ],
                "AESEQ": [
                    1,
                    2
                ],
                "AESPID": [
                    "1",
                    "3"
                ],
                "AETERM": [
                    "UPSET STOMACH",
                    "UPSET STOMACH"
                ],
                "AELLT": [
                    "Upset stomach",
                    "Upset stomach"
                ],
                "AELLTCD": [
                    10046318,
                    10046318
                ],
                "AEDECOD": [
                    "Abdominal discomfort",
                    "Abdominal discomfort"
                ],
                "AESEV": [
                    "MILD",
                    "MILD"
                ],
                "AESER": [
                    "N",
                    "N"
                ],
                "AEACN": [
                    "",
                    ""
                ],
                "AEREL": [
                    "",
                    ""
                ],
                "AEOUT": [
                    "RECOVERED/RESOLVED",
                    "RECOVERED/RESOLVED"
                ],
                "AESHOSP": [
                    "N",
                    "N"
                ],
                "AESTDTC": [
                    "2019-05-21",
                    "2019-06-15"
                ]
            }
        },
        {
            "filename": "suppae.xpt",
            "label": "Supplemental Qualifiers for AE",
            "domain": "SUPPAE",
            "variables": [
                {
                    "name": "STUDYID",
                    "label": "Study Identifier",
                    "type": "Char",
                    "length": 50
                },
                {
                    "name": "RDOMAIN",
                    "label": "Related Domain Abbreviation",
                    "type": "Char",
                    "length": 50
                },
                {
                    "name": "USUBJID",
                    "label": "Unique Subject Identifier",
                    "type": "Char",
                    "length": 50
                },
                {
                    "name": "IDVAR",
                    "label": "Identifying Variable",
                    "type": "Char",
                    "length": 50
                },
                {
                    "name": "IDVARVAL",
                    "label": "Identifying Variable Value",
                    "type": "Char",
                    "length": 50
                },
                {
                    "name": "QNAM",
                    "label": "Qualifier Variable Name",
                    "type": "Char",
                    "length": 50
                },
                {
                    "name": "QLABEL",
                    "label": "Qualifier Variable Label",
                    "type": "Char",
                    "length": 50
                },
                {
                    "name": "QVAL",
                    "label": "Data Value",
                    "type": "Char",
                    "length": 50
                },
                {
                    "name": "QORIG",
                    "label": "Origin",
                    "type": "Char",
                    "length": 50
                },
                {
                    "name": "QEVAL",
                    "label": "Evaluator",
                    "type": "Char",
                    "length": 50
                }
            ],
            "records": {
                "STUDYID": [
                    "CDISCPILOT01",
                    "CDISCPILOT01"
                ],
                "RDOMAIN": [
                    "AE",
                    "AE"
                ],
                "USUBJID": [
                    "CDISC001",
                    "CDISC002"
                ],
                "IDVAR": [
                    "AESEQ",
                    "AESEQ"
                ],
                "IDVARVAL": [
                    "1",
                    "2"
                ],
                "QNAM": [
                    "AESEV2",
                    "AESPI"
                ],
                "QLABEL": [
                    "Severity/Intensity 2",
                    "Adverse Event Special Interest"
                ],
                "QVAL": [
                    "MILD",
                    "N"
                ],
                "QORIG": [
                    "CRF",
                    "CRF"
                ],
                "QEVAL": [
                    "",
                    ""
                ]
            }
        }
    ],
    "standard": {
        "product": "sdtmig",
        "version": "3-4"
    },
    "codelists": []
}