STUDYID,DOMAIN,USUBJID,FASEQ,FATESTCD,FATEST,FAOBJ,FAORRES,FAORRESU,FASTRESC,FASTRESN,FASTRESU,FASTAT
1234,FA,123101,1,SEV,Severity/Intensity,Migraine,SEVERE,,SEVERE,,,
1234,FA,123101,2,OCCUR,Occurrence Indicator,Sensitivity To Light,,,,,,NOT DONE
1234,FA,123101,3,TSTRES,Test Result,Sensitivity To Light,-1.234,,-1.234,-1.234,,
1235,FA,123101,4,TSTRES,Test Result,Sensitivity To Light,-1.235,,-1.235,-1.235,,
1236,FA,123101,5,TSTRES,Test Result,Sensitivity To Light,1.236,,1.236,1.236,,
