STUDYID,DOMAIN,USUBJID,SUBJID,RFSTDTC,RFENDTC,RFXSTDTC,RFXENDTC,SITEID,AGE,AGEU,SEX,ARMCD,ARM,SETCD
CDISC-TEST,DM,CDISC-TEST-001,001,2019-03-12,2019-09-10,2019-03-12,2019-09-10,102,26,YEARS,F,A,HUMAN INSULIN,SET01
CDISC-TEST,DM,CDISC-TEST-002,002,2019-01-30,2019-07-31,2019-01-30,2019-07-31,103,34,YEARS,M,A,HUMAN INSULIN,SET02
CDISC-TEST,DM,CDISC-TEST-003,003,2019-01-26,2019-07-27,2019-01-26,2019-07-27,102,57,YEARS,F,B,METFORMIN,SET01
CDISC-TEST,DM,CDISC-TEST-004,004,2019-02-16,2019-08-17,2019-02-16,2019-08-17,102,31,YEARS,F,A,HUMAN INSULIN,SET03
