STUDYID,DOMAIN,USUBJID,LBSEQ,LBTESTCD,LBTEST,LBCAT,LBORRES,LBORRESU,LBORNRLO,LBORNRHI,LBSTRESC,LBSTRESN,LBSTRESU,LBSTNRLO,LBSTNRHI,LBNRIND,LBLOBXFL,VISITNUM,VISIT,EPOCH,LBDTC,LBENDTC,LBENRTPT,LBENTPT,LBDY
CDISCPILOT01,LB,CDISC001,1,ALB,Albumin,CHEMISTRY,3.9,g/dL,3.5,4.6,39,39,g/L,,,NORMAL,Y,1,SCREENING 1,SCREENING,2012-11-23T11:20,2012-11-23T11:19,COINCIDENT,SCREENING 1,-7
CDISCPILOT01,LB,CDISC001,2,ALP,Alkaline Phosphatase,CHEMISTRY,93,U/L,35,115,93,93,U/L,35,35,NORMAL,Y,1,SCREENING 1,SCREENING,2012-11-23T11:20,2012-11-23T10:20,COINCIDENT,SCREENING 1,-7
CDISCPILOT01,LB,CDISC001,3,ALB,Albumin,CHEMISTRY,18,U/L,6,35,18,18,U/L,6,,NORMAL,Y,1,SCREENING 1,SCREENING,2012-11-23T11:20,2012-11-22T11:20,,SCREENING 1,-7
CDISCPILOT01,LB,CDISC001,4,ALP,Alkaline Phosphatase,CHEMISTRY,26,U/L,11,36,26,26,U/L,,36,NORMAL,Y,1,SCREENING 1,SCREENING,2012-11-23T11:20,2012-10-23T11:20,COINCIDENT,SCREENING 1,-7
CDISCPILOT01,LB,CDISC001,5,BASO,Basophils,HEMATOLOGY,0.03,10^9/L,0,0.2,0.03,0.03,10^9/L,0,0.1,NORMAL,Y,1,SCREENING 1,SCREENING,2012-11-23T11:20,2011-11-23T11:20,,,-7
