STUDYID,DOMAIN,USUBJID,SUBJID,VISITNUM,VISIT,VISITDY,EPOCH,SVSTDTC,SVENDTC,SVSTDY,SVENDY,SVUPDES
CDISCPILOT01,SV,CDISC001,1,1,testing,-28,SCREENING,2021-04-27,2021-05-01,-28,-28,Evaluation of AE
CDISCPILOT01,SV,CDISC001,1,2,testing,1,SCREENING,2021-04-27,2021-05-01,1,1,Evaluation of AE
CDISCPILOT01,SV,CDISC001,1,3,testing,3,SCREENING,2021-04-27,2021-04-27,-28,-28,Evaluation of AE
CDISCPILOT01,SV,CDISC001,1,4,testing,5,SCREENING,2021-04-27,2021-04-27,10,45,Evaluation of AE
