{
    "rule": {
        "Authorities": [
            {
                "Organization": "CDISC",
                "Standards": [
                    {
                        "Name": "SDTMIG",
                        "References": [
                            {
                                "Citations": [
                                    {
                                        "Document": "IG v3.4",
                                        "Section": "4.4.10",
                                        "Cited_Guidance": "Within the context that defines uniqueness for a time point, there is likely to be a one-to-one relationship between most values of --TPT and --ELTM. However, since --ELTM can only be populated with ISO 8601 periods of time (as described in Section 4.4.3, Intervals of Time and Use of Duration for --DUR Variables), --ELTM may not be populated for all time points. For example, --ELTM is likely to be null for time points described by text such as 'pre-dose' or 'before breakfast.' When --ELTM is populated, if two subjects have records with the same values of DOMAIN, VISITNUM, --TPTREF, and --TPTNUM, then these records may not have different values in --ELTM."
                                    }
                                ],
                                "Origin": "SDTM and SDTMIG Conformance Rules",
                                "Version": "2.0",
                                "Rule_Identifier": {
                                    "Id": "CG0241",
                                    "Version": "1"
                                }
                            }
                        ],
                        "Version": "3.4"
                    },
                    {
                        "Name": "SDTMIG",
                        "References": [
                            {
                                "Citations": [
                                    {
                                        "Document": "IG v3.3",
                                        "Section": "4.4.10",
                                        "Cited_Guidance": "Within the context that defines uniqueness for a time point, there is likely to be a one-to-one relationship between most values of --TPT and --ELTM. However, since --ELTM can only be populated with ISO 8601 periods of time (as described in Section 4.1.4.3, Intervals of Time and Use of Duration for --DUR Variables), --ELTM may not be populated for all time points. For example, --ELTM is likely to be null for time points described by text such as 'pre-dose' or 'before breakfast.' When --ELTM is populated, if two subjects have records with the same values of DOMAIN, VISITNUM, --TPTREF, and --TPTNUM, then these records may not have different values in --ELTM."
                                    }
                                ],
                                "Origin": "SDTM and SDTMIG Conformance Rules",
                                "Version": "2.0",
                                "Rule_Identifier": {
                                    "Id": "CG0241",
                                    "Version": "1"
                                }
                            }
                        ],
                        "Version": "3.3"
                    },
                    {
                        "Name": "SDTMIG",
                        "References": [
                            {
                                "Citations": [
                                    {
                                        "Document": "IG v3.2",
                                        "Section": "4.1.4.10",
                                        "Cited_Guidance": "Within the context that defines uniqueness for a time point, there is likely to be a one-to-one relationship between most values of --TPT and --ELTM. However, since --ELTM can only be populated with ISO 8601 periods of time (as described in Section 4.1.4.3, Intervals of Time and Use of Duration for --DUR Variables), --ELTM may not be populated for all time points. For example, --ELTM is likely to be null for time points described by text such as 'pre-dose' or 'before breakfast.' When --ELTM is populated, if two subjects have records with the same values of DOMAIN, VISITNUM, --TPTREF, and --TPTNUM, then these records may not have different values in --ELTM."
                                    }
                                ],
                                "Origin": "SDTM and SDTMIG Conformance Rules",
                                "Version": "2.0",
                                "Rule_Identifier": {
                                    "Id": "CG0241",
                                    "Version": "1"
                                }
                            }
                        ],
                        "Version": "3.2"
                    },
                    {
                        "Name": "TIG",
                        "References": [
                            {
                                "Citations": [
                                    {
                                        "Document": "TIG 1.0",
                                        "Item": "Sub Section Timing Relative to Reference Points Num 3",
                                        "Section": "2.8.7.5",
                                        "Cited_Guidance": "Represents the planned elapsed time from the fixed timepoint reference to the planned observation. The value of this variable is usually also reflected in the value of variable --TPT."
                                    }
                                ],
                                "Origin": "TIG Conformance Rules",
                                "Version": "1.0",
                                "Rule_Identifier": {
                                    "Id": "TIG0449",
                                    "Version": "1"
                                }
                            }
                        ],
                        "Substandard": "SDTM",
                        "Version": "1.0"
                    }
                ]
            }
        ],
        "Check": {
            "all": [
                {
                    "name": "--TPT",
                    "operator": "non_empty"
                },
                {
                    "name": "--TPTNUM",
                    "operator": "non_empty"
                },
                {
                    "name": "--ELTM",
                    "operator": "non_empty"
                },
                {
                    "name": "--ELTM",
                    "operator": "is_inconsistent_across_dataset",
                    "value": [
                        "DOMAIN",
                        "VISITNUM",
                        "--TPTREF",
                        "--TPTNUM"
                    ]
                }
            ]
        },
        "Core": {
            "Id": "CORE-000142",
            "Status": "Published",
            "Version": "1"
        },
        "Description": "Raise an error when --TPT ^= null and --TPTNUM ^= null and --ELTM ^= null and --ELTM does not have the same value across records with the same values of DOMAIN, VISITNUM, --TPTREF, and --TPTNUM.",
        "Executability": "Fully Executable",
        "Outcome": {
            "Message": "--ELTM is not the same value across records with the same values of DOMAIN, VISITNUM, --TPTREF, and --TPTNUM.",
            "Output_Variables": [
                "--TPT",
                "--TPTNUM",
                "--ELTM",
                "VISITNUM",
                "DOMAIN"
            ]
        },
        "Scope": {
            "Classes": {
                "Include": [
                    "ALL"
                ]
            },
            "Domains": {
                "Include": [
                    "ALL"
                ]
            },
            "Use_Case": "INDH"
        },
        "Sensitivity": "Record",
        "Rule_Type": "Record Data"
    },
    "datasets": [
        {
            "filename": "vs.xpt",
            "label": "Vital Signs",
            "domain": "VS",
            "variables": [
                {
                    "name": "STUDYID",
                    "label": "Study Identifier",
                    "type": "Char",
                    "length": 12
                },
                {
                    "name": "DOMAIN",
                    "label": "Domain Abbreviation",
                    "type": "Char",
                    "length": 2
                },
                {
                    "name": "USUBJID",
                    "label": "Unique Subject Identifier",
                    "type": "Char",
                    "length": 8
                },
                {
                    "name": "VSSEQ",
                    "label": "Sequence Number",
                    "type": "Num",
                    "length": 8
                },
                {
                    "name": "VSTESTCD",
                    "label": "Vital Signs Test Short Name",
                    "type": "Char",
                    "length": 6
                },
                {
                    "name": "VSTEST",
                    "label": "Vital Signs Test Name",
                    "type": "Char",
                    "length": 24
                },
                {
                    "name": "VSPOS",
                    "label": "Vital Signs Position of Subject",
                    "type": "Char",
                    "length": 8
                },
                {
                    "name": "VSORRES",
                    "label": "Result or Finding in Original Units",
                    "type": "Char",
                    "length": 8
                },
                {
                    "name": "VSORRESU",
                    "label": "Original Units",
                    "type": "Char",
                    "length": 9
                },
                {
                    "name": "VSSTRESC",
                    "label": "Character Result/Finding in Std Format",
                    "type": "Char",
                    "length": 200
                },
                {
                    "name": "VSSTRESN",
                    "label": "Numeric Result/Finding in Standard Units",
                    "type": "Num",
                    "length": 8
                },
                {
                    "name": "VSSTRESU",
                    "label": "Standard Units",
                    "type": "Char",
                    "length": 9
                },
                {
                    "name": "VSSTAT",
                    "label": "Completion Status",
                    "type": "Char",
                    "length": 8
                },
                {
                    "name": "VSLOC",
                    "label": "Location of Vital Signs Measurement",
                    "type": "Char",
                    "length": 11
                },
                {
                    "name": "VSLOBXFL",
                    "label": "Last Observation Before Exposure Flag",
                    "type": "Char",
                    "length": 1
                },
                {
                    "name": "VSREPNUM",
                    "label": "Repetition Number",
                    "type": "Num",
                    "length": 8
                },
                {
                    "name": "VISITNUM",
                    "label": "Visit Number",
                    "type": "Num",
                    "length": 8
                },
                {
                    "name": "VISIT",
                    "label": "Visit Name",
                    "type": "Char",
                    "length": 200
                },
                {
                    "name": "EPOCH",
                    "label": "Epoch",
                    "type": "Char",
                    "length": 9
                },
                {
                    "name": "VSDTC",
                    "label": "Date/Time of Measurements",
                    "type": "Char",
                    "length": 10
                },
                {
                    "name": "VSDY",
                    "label": "Study Day of Vital Signs",
                    "type": "Num",
                    "length": 8
                },
                {
                    "name": "VSTPT",
                    "label": "Planned Time Point Name",
                    "type": "Char",
                    "length": 200
                },
                {
                    "name": "VSTPTNUM",
                    "label": "Planned Time Point Number",
                    "type": "Num",
                    "length": 8
                },
                {
                    "name": "VSELTM",
                    "label": "Planned Elapsed Time from Time Point Ref",
                    "type": "Char",
                    "length": 200
                },
                {
                    "name": "VSTPTREF",
                    "label": "Time Point Reference",
                    "type": "Char",
                    "length": 200
                }
            ],
            "records": {
                "STUDYID": [
                    "CDISCPILOT01",
                    "CDISCPILOT01",
                    "CDISCPILOT01",
                    "CDISCPILOT01"
                ],
                "DOMAIN": [
                    "VS",
                    "VS",
                    "VS",
                    "VS"
                ],
                "USUBJID": [
                    "CDISC001",
                    "CDISC001",
                    "CDISC002",
                    "CDISC002"
                ],
                "VSSEQ": [
                    3,
                    4,
                    6,
                    7
                ],
                "VSTESTCD": [
                    "DIABP",
                    "DIABP",
                    "DIABP",
                    "DIABP"
                ],
                "VSTEST": [
                    "Diastolic Blood Pressure",
                    "Diastolic Blood Pressure",
                    "Diastolic Blood Pressure",
                    "Diastolic Blood Pressure"
                ],
                "VSPOS": [
                    "STANDING",
                    "STANDING",
                    "SUPINE",
                    "STANDING"
                ],
                "VSORRES": [
                    "83",
                    "79",
                    "77",
                    "71"
                ],
                "VSORRESU": [
                    "mmHg",
                    "mmHg",
                    "mmHg",
                    "mmHg"
                ],
                "VSSTRESC": [
                    "83",
                    "79",
                    "77",
                    "71"
                ],
                "VSSTRESN": [
                    83,
                    79,
                    77,
                    71
                ],
                "VSSTRESU": [
                    "mmHg",
                    "mmHg",
                    "mmHg",
                    "mmHg"
                ],
                "VSSTAT": [
                    "",
                    "",
                    "",
                    ""
                ],
                "VSLOC": [
                    "",
                    "",
                    "",
                    ""
                ],
                "VSLOBXFL": [
                    "Y",
                    "",
                    "",
                    ""
                ],
                "VSREPNUM": [
                    null,
                    null,
                    1,
                    2
                ],
                "VISITNUM": [
                    4,
                    4,
                    5,
                    5
                ],
                "VISIT": [
                    "BASELINE",
                    "WEEK 2",
                    "WEEK 6",
                    "WEEK 6"
                ],
                "EPOCH": [
                    "SCREENING",
                    "TREATMENT",
                    "TREATMENT",
                    "TREATMENT"
                ],
                "VSDTC": [
                    "2012-11-30",
                    "2012-12-13",
                    "2013-01-10",
                    "2013-01-10"
                ],
                "VSDY": [
                    1,
                    14,
                    42,
                    42
                ],
                "VSTPT": [
                    "4H PREDOSE",
                    "4H PREDOSE",
                    "10MIN POSTDOSE",
                    "10MIN POSTDOSE"
                ],
                "VSTPTNUM": [
                    5,
                    5,
                    10,
                    10
                ],
                "VSELTM": [
                    "-PT4H",
                    "-PT4H",
                    "10",
                    "10"
                ],
                "VSTPTREF": [
                    "DOSE",
                    "DOSE",
                    "DOSE",
                    "DOSE"
                ]
            }
        }
    ],
    "codelists": []
}