STUDYID,DOMAIN,USUBJID,QSSEQ,QSTESTCD,QSTEST,QSCAT,QSORRES,QSSTRESC,QSSTRESN,QSLOBXFL,VISITNUM,VISIT,EPOCH,QSDTC,QSDY,QSEVLINT
CDISCPILOT01,QS,CDISC001,1,PHQ0101,PHQ01-Little Interest/Pleasure in Things,PHQ-9,Several days,1,1,Y,3,BASELINE,SCREENING,2012-11-30,1,-P2W
CDISCPILOT01,QS,CDISC001,2,PHQ0102,PHQ01-Feeling Down Depressed or Hopeless,PHQ-9,Not at all,0,0,Y,3,BASELINE,SCREENING,2012-11-30,1,-P2W
CDISCPILOT01,QS,CDISC001,3,PHQ0103,PHQ01-Trouble Falling or Staying Asleep,PHQ-9,Several days,1,1,Y,3,BASELINE,SCREENING,2012-11-30,1,-P2W
CDISCPILOT01,QS,CDISC001,4,PHQ0104,PHQ01-Feeling Tired or Little Energy,PHQ-9,Not at all,0,0,Y,3,BASELINE,SCREENING,2012-11-30,1,-P2W
CDISCPILOT01,QS,CDISC001,5,PHQ0105,PHQ01-Poor Appetite or Overeating,PHQ-9,Not at all,0,0,Y,3,BASELINE,SCREENING,2012-11-30,1,-P2W
CDISCPILOT01,QS,CDISC001,6,PHQ0106,PHQ01-Feeling Bad About Yourself,PHQ-9,Several days,1,1,Y,3,BASELINE,SCREENING,2012-11-30,1,-P2W
CDISCPILOT01,QS,CDISC001,7,PHQ0107,PHQ01-Trouble Concentrating on Things,PHQ-9,More than half the days,2,2,Y,3,BASELINE,SCREENING,2012-11-30,1,-P2W
CDISCPILOT01,QS,CDISC001,8,PHQ0108,PHQ01-Moving Slowly or Fidgety/Restless,PHQ-9,Not at all,0,0,Y,3,BASELINE,SCREENING,2012-11-30,1,-P2W
CDISCPILOT01,QS,CDISC001,9,PHQ0109,PHQ01-Thoughts You Be Better Off Dead,PHQ-9,Not at all,0,0,Y,3,BASELINE,SCREENING,2012-11-30,1,-P2W
CDISCPILOT01,QS,CDISC001,10,PHQ0110,PHQ01-Difficult to Work/Take Care Things,PHQ-9,Not difficult at all,Not difficult at all,,Y,3,BASELINE,SCREENING,2012-11-30,1,-P2W
CDISCPILOT01,QS,CDISC001,11,PHQ0111,PHQ01-Total Score,PHQ-9,5,5,5,Y,3,BASELINE,SCREENING,2012-11-30,1,-P2W
CDISCPILOT01,QS,CDISC001,17,PHQ0101,PHQ01-Little Interest/Pleasure in Things,PHQ-9,Not at all,0,0,,201,EARLY DISCONTINUATION RETRIEVAL,TREATMENT,2013-05-20,172,-P2W
