{
  "AE": null,
  "AG": [],
  "BE": [],
  "CE": [],
  "CM": [],
  "DS": null,
  "DV": null,
  "EC": [],
  "EX": null,
  "HO": [],
  "MH": [],
  "ML": [],
  "PR": [],
  "SU": [
    {
      "domain": "SU",
      "errors": [
        {
          "row": 1,
          "seq": 2,
          "uSubjId": "CDISC001",
          "value": {
            "SUOCCUR": "",
            "SUPRESP": "N",
            "SUSTAT": "NOT DONE"
          }
        }
      ],
      "message": "--OCCUR should only be provided when --PRESP is equal to \"Y\".",
      "variables": [
        "SUOCCUR",
        "SUPRESP",
        "SUSTAT"
      ]
    }
  ]
}