dataset,variable,label,type,length
ag,STUDYID,Study Identifier,Char,50
ag,DOMAIN,Domain Abbreviation,Char,50
ag,USUBJID,Unique Subject Identifier,Char,50
ag,AGSEQ,Sequence Number,Num,8
ag,AGTRT,Reported Agent Name,Char,50
ag,AGPRESP,AG Pre-Specified,Char,50
ag,AGOCCUR,AG Occurrence,Char,50
ag,AGDOSE,Dose per Administration,Num,50
ag,AGDOSU,Dose Units,Char,50
ag,AGTRTV,Treatment Vehicle,Char,50
ag,AGVAMT,"Treatment Vehicle
Amount",Char,50
ag,AGVAMTU,"Treatment Vehicle
Amount Units",Char,50
