STUDYID,DOMAIN,USUBJID,AESEQ,AETERM,AEMODIFY,AEDECOD,AEBODSYS,AESEV,AESER,AEACN,AEREL,AEOUT,AESCONG,AESDISAB,AESDTH,AESHOSP,AESLIFE,EPOCH,AESTDTC,AEENDTC,AESTDY,AEENDY,AEENRF
ABC123,AE,123101,1,POUNDING HEADACHE,HEADACHE,Headache,Nervous system disorders,SEVERE,N,NOT APPLICABLE,DEFINITELY NOT RELATED,RECOVERED/RESOLVED,,,,,,SCREENING,2022-05-19T13:00,2022-05-19T13:44,-1,-1,
ABC123,AE,123101,2,BACK PAIN FOR 6 HOURS,BACK PAIN,Back pain,Musculoskeletal and connective tissue disorders,MODERATE,N,DOSE REDUCED,PROBABLY RELATED,RECOVERED/RESOLVED,,,,,,TREATMENT,2022-05-20T13:50,2022-05-20T13:44,1,1,
ABC123,AE,123101,3,PULMONARY EMBOLISM,,Pulmonary embolism,Vascular disorders,MODERATE,Y,DOSE REDUCED,PROBABLY NOT RELATED,RECOVERING/RESOLVING,,,,Y,Y,TREATMENT,2022-05-28T13:44,,9,,AFTER
