STUDYID,DOMAIN,USUBJID,ARMCD,ARM,ACTARMCD,ACTARM,ARMNRS,ACTARMUD,RFSTDTC
ABC123,DM,123101,A,Drug A,A,Drug A,,,2022-05-20T13:44
ABC123,DM,123102,B,Drug B,B,Drug B,,,2005-10-23T13:06
ABC123,DM,123103,,,,,SCREEN FAILURE,,2005-10-15
ABC123,DM,123104,,,,,NOT ASSIGNED,,2015-10-13T13:08
ABC123,DM,123105,A,Drug A,,,"ASSIGNED, NOT TREATED",,2005-10-13T13:09
