STUDYID,DOMAIN,USUBJID,AESEQ,AELNKID,AETERM,AESEV,AESER,AEACN,AEREL,AEOUT,AESCAN,AESCONG,AESDISAB,AESDTH,AESHOSP,AESLIFE,AESOD,EPOCH,AESTDTC,AEENDTC,AESTDY,AEENDY
CDISCPILOT01,AE,CDISC001,1,1,INJECTION SITE REACTION,MODERATE,N,DRUG WITHDRAWN,RELATED,NOT RECOVERED/NOT RESOLVED,N,N,N,N,N,N,N,TREATMENT,2012-12-02,,3,
CDISCPILOT01,AE,CDISC001,2,2,FATIGUE,MODERATE,N,DOSE NOT CHANGED,UNLIKELY RELATED,NOT RECOVERED/NOT RESOLVED,N,N,N,N,N,N,N,TREATMENT,2013-01-14,,46,
CDISCPILOT01,AE,CDISC002,1,1,INJECTION SITE REACTION,MILD,N,DOSE NOT CHANGED,POSSIBLY RELATED,NOT RECOVERED/NOT RESOLVED,N,N,N,N,N,N,N,TREATMENT,2012-11-16,,2,
