{
    "rule": {
        "Authorities": [
            {
                "Organization": "CDISC",
                "Standards": [
                    {
                        "Name": "SDTMIG",
                        "References": [
                            {
                                "Citations": [
                                    {
                                        "Document": "IG v3.4",
                                        "Item": "Assumption 2.b",
                                        "Section": "6.2.3",
                                        "Cited_Guidance": "If disposition events for both study participation and study treatment(s) are to be represented, then DSSCAT provides this distinction."
                                    },
                                    {
                                        "Document": "IG v3.4",
                                        "Item": "Assumption 5",
                                        "Section": "6.2.3",
                                        "Cited_Guidance": "ICH E3: Section 10.1 indicates that 'the specific reason for discontinuation' should be presented, and that summaries should be 'grouped by treatment and by major reason.' The CDISC SDS Team interprets this guidance as requiring one standardized disposition term (DSDECOD) per disposition event. If multiple reasons are reported, the sponsor should identify a primary reason and use that to populate DSTERM and DSDECOD. Additional reasons should be submitted in SUPPDS."
                                    }
                                ],
                                "Origin": "SDTM and SDTMIG Conformance Rules",
                                "Version": "2.0",
                                "Rule_Identifier": {
                                    "Id": "CG0537",
                                    "Version": "1"
                                }
                            }
                        ],
                        "Version": "3.4"
                    },
                    {
                        "Name": "SDTMIG",
                        "References": [
                            {
                                "Citations": [
                                    {
                                        "Document": "IG v3.3",
                                        "Item": "Assumption 2.b|Assumption 5",
                                        "Section": "6.2.3 DS",
                                        "Cited_Guidance": "Assumption 2.b[If disposition events for both study participation and study treatment(s) are to be represented, then DSSCAT provides this distinction]|Assumption 5[ICH E3: Section 10.1 indicates that 'the specific reason for discontinuation' should be presented, and that summaries should be 'grouped by treatment and by major reason.' The CDISC SDS Team interprets this guidance as requiring one standardized disposition term (DSDECOD) per disposition event. If multiple reasons are reported, the sponsor should identify a primary reason and use that to populate DSTERM and DSDECOD. Additional reasons should be submitted in SUPPDS.]"
                                    }
                                ],
                                "Origin": "SDTM and SDTMIG Conformance Rules",
                                "Version": "2.0",
                                "Rule_Identifier": {
                                    "Id": "CG0537",
                                    "Version": "1"
                                }
                            }
                        ],
                        "Version": "3.3"
                    },
                    {
                        "Name": "TIG",
                        "References": [
                            {
                                "Citations": [
                                    {
                                        "Document": "TIG 1.0",
                                        "Item": "Assumption 2b",
                                        "Section": "2.8.10.8",
                                        "Cited_Guidance": "For records with DSCAT = \"\"DISPOSITION EVENT\"\", DSSCAT = \"\"STUDY PARTICIPATION\"\" is used to represent disposition of study participation. DSSCAT = \"\"PRODUCT EXPOSURE\"\" is used when a study has only a single product. If a study has multiple products, then DSSCAT should name the individual product.\""
                                    }
                                ],
                                "Origin": "TIG Conformance Rules",
                                "Version": "1.0",
                                "Rule_Identifier": {
                                    "Id": "TIG0630",
                                    "Version": "1"
                                }
                            }
                        ],
                        "Version": "1.0"
                    }
                ]
            }
        ],
        "Check": {
            "all": [
                {
                    "name": "DSCAT",
                    "operator": "equal_to",
                    "value": "DISPOSITION EVENT",
                    "value_is_literal": true
                },
                {
                    "name": "DSSCAT",
                    "operator": "not_exists"
                },
                {
                    "name": "DSCAT",
                    "operator": "is_not_unique_set",
                    "value": [
                        "EPOCH",
                        "USUBJID"
                    ]
                }
            ]
        },
        "Core": {
            "Id": "CORE-000374",
            "Status": "Published",
            "Version": "1"
        },
        "Description": "Trigger error when there is more than one record per subject per EPOCH",
        "Executability": "Fully Executable",
        "Outcome": {
            "Message": "There is more than one record per subject per EPOCH",
            "Output_Variables": [
                "DSCAT",
                "DSSCAT",
                "EPOCH"
            ]
        },
        "Scope": {
            "Classes": {
                "Include": [
                    "EVENTS"
                ]
            },
            "Domains": {
                "Include": [
                    "DS"
                ]
            },
            "Use_Case": "INDH"
        },
        "Sensitivity": "Record",
        "Rule_Type": "Record Data"
    },
    "datasets": [
        {
            "filename": "ds.xpt",
            "label": "Subject Disposition",
            "domain": "DS",
            "variables": [
                {
                    "name": "STUDYID",
                    "label": "Study Identifier",
                    "type": "Char",
                    "length": 50
                },
                {
                    "name": "DOMAIN",
                    "label": "Domain Abbreviation",
                    "type": "Char",
                    "length": 50
                },
                {
                    "name": "USUBJID",
                    "label": "Unique Subject Identifier",
                    "type": "Char",
                    "length": 50
                },
                {
                    "name": "DSSEQ",
                    "label": "Sequence Number",
                    "type": "Num",
                    "length": 8
                },
                {
                    "name": "DSGRPID",
                    "label": "Group ID",
                    "type": "Char",
                    "length": 50
                },
                {
                    "name": "DSREFID",
                    "label": "Reference ID",
                    "type": "Char",
                    "length": 50
                },
                {
                    "name": "DSSPID",
                    "label": "Sponsor-Defined Identifier",
                    "type": "Char",
                    "length": 50
                },
                {
                    "name": "DSTERM",
                    "label": "Reported Term for the Disposition Event",
                    "type": "Char",
                    "length": 50
                },
                {
                    "name": "DSDECOD",
                    "label": "Standardized Disposition Term",
                    "type": "Char",
                    "length": 50
                },
                {
                    "name": "DSCAT",
                    "label": "Category for Disposition Event",
                    "type": "Char",
                    "length": 50
                },
                {
                    "name": "EPOCH",
                    "label": "Epoch",
                    "type": "Char",
                    "length": 50
                },
                {
                    "name": "DSDTC",
                    "label": "Date/Time of Collection",
                    "type": "Char",
                    "length": 50
                },
                {
                    "name": "DSSTDTC",
                    "label": "Start Date/Time of Disposition Event",
                    "type": "Char",
                    "length": 50
                },
                {
                    "name": "DSDY",
                    "label": "Study Day of Collection",
                    "type": "Num",
                    "length": 8
                },
                {
                    "name": "DSSTDY",
                    "label": "Study Day of Start of Disposition Event",
                    "type": "Num",
                    "length": 8
                }
            ],
            "records": {
                "STUDYID": [
                    "CDISC-TEST",
                    "CDISC-TEST",
                    "CDISC-TEST"
                ],
                "DOMAIN": [
                    "DS",
                    "DS",
                    "DS"
                ],
                "USUBJID": [
                    "S001",
                    "S001",
                    "S002"
                ],
                "DSSEQ": [
                    1,
                    2,
                    1
                ],
                "DSGRPID": [
                    "",
                    "",
                    ""
                ],
                "DSREFID": [
                    "",
                    "",
                    ""
                ],
                "DSSPID": [
                    "",
                    "",
                    ""
                ],
                "DSTERM": [
                    "COMPLETED",
                    "COMPLETED",
                    "COMPLETED"
                ],
                "DSDECOD": [
                    "COMPLETED",
                    "COMPLETED",
                    "COMPLETED"
                ],
                "DSCAT": [
                    "DISPOSITION EVENT",
                    "DISPOSITION EVENT",
                    "DISPOSITION EVENT"
                ],
                "EPOCH": [
                    "TREATMENT",
                    "FOLLOW-UP",
                    "TREATMENT"
                ],
                "DSDTC": [
                    "",
                    "",
                    ""
                ],
                "DSSTDTC": [
                    "",
                    "",
                    ""
                ],
                "DSDY": [
                    null,
                    null,
                    null
                ],
                "DSSTDY": [
                    null,
                    null,
                    null
                ]
            }
        }
    ],
    "standard": {
        "product": "sdtmig",
        "version": "3-4"
    },
    "codelists": []
}