STUDYID,DOMAIN,USUBJID,VSSEQ,VSTESTCD,VSTEST,VSPOS,VSORRES,VSORRESU,VSSTRESC,VSSTRESN,VSSTRESU,VSSTAT,VSLOC,VSLOBXFL,VSREPNUM,VISITNUM,VISIT,EPOCH,VSDTC,VSDY,VSTPT,VSTPTNUM
CDISCPILOT01,VS,CDISC001,1,DIABP,Diastolic Blood Pressure,STANDING,71,mmHg,71,71,mmHg,,,,,1,SCREENING 1,SCREENING,2012-11-23,-7,Screening 1,1
CDISCPILOT01,VS,CDISC001,2,DIABP,Diastolic Blood Pressure,STANDING,71,mmHg,71,71,mmHg,,,,,2,SCREENING 2,SCREENING,2012-11-28,-2,Screening2,1
