{
  "rule": {
    "Authority": {
      "Organization": "CDISC"
    },
    "Check": {
      "all": [
        {
          "name": "AEOCCUR",
          "operator": "exists"
        }
      ]
    },
    "Citations": [
      {
        "Document": "SDTMIG v3.4",
        "Item": "Assumption 9",
        "Section": "6.2.1",
        "Cited_Guidance": "The following Qualifiers would not be used in AE; --OCCUR, --STAT, and --REASND. They are the only Qualifiers from the SDTM Events Class not in the AE domain. They are not permitted because the AE domain contains only records for adverse events that actually occurred."
      },
      {
        "Document": "SDTMIG v3.3",
        "Item": "Assumption 9",
        "Section": "6.2.1",
        "Cited_Guidance": "The following Qualifiers would not be used in AE; --OCCUR, --STAT, and--REASND. They are the only Qualifiers from the SDTM Events Class not in the AE domain. They are not permitted because the AE domain contains only records for adverse events that actually occurred."
      },
      {
        "Document": "SDTMIG v3.2",
        "Item": "Assumption 8",
        "Section": "6.2.",
        "Cited_Guidance": "The following Qualifiers would not be used in AE; --OCCUR, --STAT, and--REASND. They are the only Qualifiers from the SDTM Events Class not in the AE domain. They are not permitted because the AE domain contains only records for adverse events that actually occurred."
      }
    ],
    "Core": {
      "Id": "CDISC.SDTMIG.CG0040",
      "Version": "1"
    },
    "Description": "Raise an error when AEOCCUR exists in AE dataset.",
    "Outcome": {
      "Message": "AEOCCUR is present in AE dataset.",
      "Output_Variables": [
        "AEOCCUR"
      ]
    },
    "References": [
      {
        "Origin": "SDTM and SDTMIG Conformance Rules",
        "Version": "2.0",
        "Rule_Identifier": {
          "Id": "CG0040",
          "Version": "1"
        }
      }
    ],
    "Scopes": {
      "Classes": {
        "Include": [
          "Events"
        ]
      },
      "Domains": {
        "Include": [
          "AE"
        ]
      },
      "Standards": [
        {
          "Name": "SDTMIG",
          "Version": "3.4"
        },
        {
          "Name": "SDTMIG",
          "Version": "3.3"
        },
        {
          "Name": "SDTMIG",
          "Version": "3.2"
        }
      ]
    },
    "Sensitivity": "Dataset",
    "Severity": "Error",
    "Rule_Type": "Variable Presence"
  },
  "datasets": [
    {
      "filename": "ae.xpt",
      "label": "Adverse Events",
      "domain": "AE",
      "variables": [
        {
          "name": "STUDYID",
          "label": "Study Identifier",
          "type": "Char",
          "length": 50
        },
        {
          "name": "DOMAIN",
          "label": "Domain Abbreviation",
          "type": "Char",
          "length": 50
        },
        {
          "name": "USUBJID",
          "label": "Unique Subject Identifier",
          "type": "Char",
          "length": 50
        },
        {
          "name": "AESEQ",
          "label": "Sequence Number",
          "type": "Num",
          "length": 8
        },
        {
          "name": "AETERM",
          "label": "Reported Term for the Adverse Event",
          "type": "Char",
          "length": 50
        },
        {
          "name": "AEMODIFY",
          "label": "Modified Reported Term",
          "type": "Char",
          "length": 50
        },
        {
          "name": "AEDECOD",
          "label": "Dictionary-Derived Term",
          "type": "Char",
          "length": 50
        },
        {
          "name": "AEBODSYS",
          "label": "Body System or Organ Class",
          "type": "Char",
          "length": 50
        },
        {
          "name": "AESEV",
          "label": "Severity/Intensity",
          "type": "Char",
          "length": 50
        },
        {
          "name": "AESER",
          "label": "Serious Event",
          "type": "Char",
          "length": 50
        },
        {
          "name": "AEACN",
          "label": "Action Taken with Study Treatment",
          "type": "Char",
          "length": 50
        },
        {
          "name": "AEREL",
          "label": "Causality",
          "type": "Char",
          "length": 50
        },
        {
          "name": "AEOUT",
          "label": "Outcome of Adverse Event",
          "type": "Char",
          "length": 50
        },
        {
          "name": "AESCONG",
          "label": "Congenital Anomaly or Birth Defect",
          "type": "Char",
          "length": 50
        },
        {
          "name": "AESDISAB",
          "label": "Persist or Signif Disability/Incapacity",
          "type": "Char",
          "length": 50
        },
        {
          "name": "AESDTH",
          "label": "Results in Death",
          "type": "Char",
          "length": 50
        },
        {
          "name": "AESHOSP",
          "label": "Requires or Prolongs Hospitalization",
          "type": "Char",
          "length": 50
        },
        {
          "name": "AESLIFE",
          "label": "Is Life Threatening",
          "type": "Char",
          "length": 50
        },
        {
          "name": "EPOCH",
          "label": "Epoch",
          "type": "Char",
          "length": 50
        },
        {
          "name": "AESTDTC",
          "label": "Start Date/Time of Adverse Event",
          "type": "Char",
          "length": 50
        },
        {
          "name": "AEENDTC",
          "label": "End Date/Time of Adverse Event",
          "type": "Char",
          "length": 50
        },
        {
          "name": "AESTDY",
          "label": "Study Day of Start of Adverse Event",
          "type": "Num",
          "length": 8
        },
        {
          "name": "AEENDY",
          "label": "Study Day of End of Adverse Event",
          "type": "Num",
          "length": 8
        },
        {
          "name": "AEENRF",
          "label": "End Relative to Reference Period",
          "type": "Char",
          "length": 50
        }
      ],
      "records": {
        "STUDYID": [
          "ABC123",
          "ABC123",
          "ABC123"
        ],
        "DOMAIN": [
          "AE",
          "AE",
          "AE"
        ],
        "USUBJID": [
          "123101",
          "123101",
          "123101"
        ],
        "AESEQ": [
          1,
          2,
          3
        ],
        "AETERM": [
          "POUNDING HEADACHE",
          "BACK PAIN FOR 6 HOURS",
          "PULMONARY EMBOLISM"
        ],
        "AEMODIFY": [
          "HEADACHE",
          "BACK PAIN",
          ""
        ],
        "AEDECOD": [
          "Headache",
          "Back pain",
          "Pulmonary embolism"
        ],
        "AEBODSYS": [
          "Nervous system disorders",
          "Musculoskeletal and connective tissue disorders",
          "Vascular disorders"
        ],
        "AESEV": [
          "SEVERE",
          "MODERATE",
          "MODERATE"
        ],
        "AESER": [
          "N",
          "N",
          "Y"
        ],
        "AEACN": [
          "NOT APPLICABLE",
          "DOSE REDUCED",
          "DOSE REDUCED"
        ],
        "AEREL": [
          "DEFINITELY NOT RELATED",
          "PROBABLY RELATED",
          "PROBABLY NOT RELATED"
        ],
        "AEOUT": [
          "RECOVERED/RESOLVED",
          "RECOVERED/RESOLVED",
          "RECOVERING/RESOLVING"
        ],
        "AESCONG": [
          "",
          "",
          ""
        ],
        "AESDISAB": [
          "",
          "",
          ""
        ],
        "AESDTH": [
          "",
          "",
          ""
        ],
        "AESHOSP": [
          "",
          "",
          "Y"
        ],
        "AESLIFE": [
          "",
          "",
          "Y"
        ],
        "EPOCH": [
          "SCREENING",
          "TREATMENT",
          "TREATMENT"
        ],
        "AESTDTC": [
          "2005-10-12",
          "2005-10-13T13:05",
          "2005-10-21"
        ],
        "AEENDTC": [
          "2005-10-12",
          "2005-10-13T19:00",
          ""
        ],
        "AESTDY": [
          -1,
          1,
          9
        ],
        "AEENDY": [
          -1,
          1,
          null
        ],
        "AEENRF": [
          "",
          "",
          "AFTER"
        ]
      }
    }
  ]
}