STUDYID,DOMAIN,USUBJID,DSTERM,DSDECOD,DSCAT,DSSTDTC
CDISCPILOT01,DS,01-701-1015,PROTOCOL COMPLETED,COMPLETED,"DISPOSITION
EVENT",2014-07-02
CDISCPILOT01,DS,01-701-1015,FINAL LAB VISIT,FINAL LAB VISIT,"OTHER
EVENT",2014-07-02
CDISCPILOT01,DS,01-701-1023,ADVERSE EVENT,"ADVERSE
EVENT","DISPOSITION
EVENT",2012-09-02
CDISCPILOT01,DS,01-701-1023,FINAL LAB VISIT,FINAL LAB VISIT,"OTHER
EVENT",2012-09-02
CDISCPILOT01,DS,01-701-1023,FINAL RETRIEVAL VISIT,"FINAL
RETRIEVAL
VISIT","OTHER
EVENT",2013-02-18
CDISCPILOT01,DS,01-701-1028,PROTOCOL COMPLETED,COMPLETED,"DISPOSITION
EVENT",2014-01-14
CDISCPILOT01,DS,01-701-1028,FINAL LAB VISIT,FINAL LAB VISIT,"OTHER
EVENT",2014-01-14
CDISCPILOT01,DS,01-701-1033,"SPONSOR DECISION (STUDY OR
PATIENT DISCONTINUED BY THE
SPONSOR)","STUDY
TERMINATED BY
SPONSOR","DISPOSITION
EVENT",2014-04-14
CDISCPILOT01,DS,01-701-1033,FINAL LAB VISIT,FINAL LAB VISIT,"OTHER
EVENT",2014-04-14
CDISCPILOT01,DS,01-701-1033,FINAL RETRIEVAL VISIT,"FINAL
RETRIEVAL
VISIT","OTHER
EVENT",2014-09-15
CDISCPILOT01,DS,01-701-1034,PROTOCOL COMPLETED,COMPLETED,"DISPOSITION
EVENT",2014-12-30
CDISCPILOT01,DS,01-701-1034,FINAL LAB VISIT,FINAL LAB VISIT,"OTHER
EVENT",2014-12-30
CDISCPILOT01,DS,01-701-1047,ADVERSE EVENT,"ADVERSE
EVENT","DISPOSITION
EVENT",2013-03-29
CDISCPILOT01,DS,01-701-1047,FINAL LAB VISIT,FINAL LAB VISIT,"OTHER
EVENT",2013-04-07
CDISCPILOT01,DS,01-701-1047,FINAL RETRIEVAL VISIT,"FINAL
RETRIEVAL
VISIT","OTHER
EVENT",2013-07-28
CDISCPILOT01,DS,01-701-1057,SCREEN FAILURE,"SCREEN
FAILURE","DISPOSITION
EVENT",2013-12-20
CDISCPILOT01,DS,01-701-1097,PROTOCOL COMPLETED,COMPLETED,"DISPOSITION
EVENT",2014-07-09
CDISCPILOT01,DS,01-701-1097,FINAL LAB VISIT,FINAL LAB VISIT,"OTHER
EVENT",2014-07-09
CDISCPILOT01,DS,01-701-1111,ADVERSE EVENT,"ADVERSE
EVENT","DISPOSITION
EVENT",2012-09-17
CDISCPILOT01,DS,01-701-1111,FINAL LAB VISIT,FINAL LAB VISIT,"OTHER
EVENT",2012-09-17
CDISCPILOT01,DS,01-701-1111,FINAL RETRIEVAL VISIT,"FINAL
RETRIEVAL
VISIT","OTHER
EVENT",2013-02-22
CDISCPILOT01,DS,01-701-1115,ADVERSE EVENT,"ADVERSE
EVENT","DISPOSITION
EVENT",2013-01-23
CDISCPILOT01,DS,01-701-1115,FINAL LAB VISIT,FINAL LAB VISIT,"OTHER
EVENT",2013-01-23
CDISCPILOT01,DS,01-701-1115,FINAL RETRIEVAL VISIT,"FINAL
RETRIEVAL
VISIT","OTHER
EVENT",2013-05-20
CDISCPILOT01,DS,01-701-1118,PROTOCOL COMPLETED,COMPLETED,"DISPOSITION
EVENT",2014-09-09
CDISCPILOT01,DS,01-701-1118,FINAL LAB VISIT,FINAL LAB VISIT,"OTHER
EVENT",2014-09-09
CDISCPILOT01,DS,01-701-1130,PROTOCOL COMPLETED,COMPLETED,"DISPOSITION
EVENT",2014-08-16
CDISCPILOT01,DS,01-701-1130,FINAL LAB VISIT,FINAL LAB VISIT,"OTHER
EVENT",2014-08-16
CDISCPILOT01,DS,01-701-1133,PROTOCOL COMPLETED,COMPLETED,"DISPOSITION
EVENT",2013-04-29
CDISCPILOT01,DS,01-701-1133,FINAL LAB VISIT,FINAL LAB VISIT,"OTHER
EVENT",2013-04-29
CDISCPILOT01,DS,01-701-1145,SCREEN FAILURE,"SCREEN
FAILURE","DISPOSITION
EVENT",2013-09-05
CDISCPILOT01,DS,01-701-1146,ADVERSE EVENT,"ADVERSE
EVENT","DISPOSITION
EVENT",2013-06-30
CDISCPILOT01,DS,01-701-1146,FINAL LAB VISIT,FINAL LAB VISIT,"OTHER
EVENT",2013-06-30
CDISCPILOT01,DS,01-701-1148,PROTOCOL COMPLETED,COMPLETED,"DISPOSITION
EVENT",2014-02-20
CDISCPILOT01,DS,01-701-1148,FINAL LAB VISIT,FINAL LAB VISIT,"OTHER
EVENT",2014-02-20
CDISCPILOT01,DS,01-701-1153,PROTOCOL COMPLETED,COMPLETED,"DISPOSITION
EVENT",2014-04-01
CDISCPILOT01,DS,01-701-1153,FINAL LAB VISIT,FINAL LAB VISIT,"OTHER
EVENT",2014-04-01
CDISCPILOT01,DS,01-701-1162,SCREEN FAILURE,"SCREEN
FAILURE","DISPOSITION
EVENT",2013-04-18
CDISCPILOT01,DS,01-701-1176,SCREEN FAILURE,"SCREEN
FAILURE","DISPOSITION
EVENT",2012-09-30
CDISCPILOT01,DS,01-701-1180,ADVERSE EVENT,"ADVERSE
EVENT","DISPOSITION
EVENT",2013-03-23
CDISCPILOT01,DS,01-701-1180,FINAL LAB VISIT,FINAL LAB VISIT,"OTHER
EVENT",2013-03-23
CDISCPILOT01,DS,01-701-1181,ADVERSE EVENT,"ADVERSE
EVENT","DISPOSITION
EVENT",2013-12-12
CDISCPILOT01,DS,01-701-1181,FINAL LAB VISIT,FINAL LAB VISIT,"OTHER
EVENT",2013-12-12
CDISCPILOT01,DS,01-701-1181,FINAL RETRIEVAL VISIT,"FINAL
RETRIEVAL
VISIT","OTHER
EVENT",2014-05-23
CDISCPILOT01,DS,01-701-1188,ADVERSE EVENT,"ADVERSE
EVENT","DISPOSITION
EVENT",2013-03-25
CDISCPILOT01,DS,01-701-1188,FINAL LAB VISIT,FINAL LAB VISIT,"OTHER
EVENT",2013-03-25
CDISCPILOT01,DS,01-701-1188,FINAL RETRIEVAL VISIT,"FINAL
RETRIEVAL
VISIT","OTHER
EVENT",2013-08-04
CDISCPILOT01,DS,01-701-1192,PROTOCOL COMPLETED,COMPLETED,"DISPOSITION
EVENT",2013-01-20
CDISCPILOT01,DS,01-701-1192,FINAL LAB VISIT,FINAL LAB VISIT,"OTHER
EVENT",2013-01-20
CDISCPILOT01,DS,01-701-1203,PROTOCOL COMPLETED,COMPLETED,"DISPOSITION
EVENT",2013-08-03
CDISCPILOT01,DS,01-701-1203,FINAL LAB VISIT,FINAL LAB VISIT,"OTHER
EVENT",2013-08-03
CDISCPILOT01,DS,01-701-1211,DEATH,DEATH,"DISPOSITION
EVENT",2013-01-14
CDISCPILOT01,DS,01-701-1211,FINAL LAB VISIT,FINAL LAB VISIT,"OTHER
EVENT",2013-01-08
CDISCPILOT01,DS,01-701-1234,PROTOCOL COMPLETED,COMPLETED,"DISPOSITION
EVENT",2013-09-22
CDISCPILOT01,DS,01-701-1234,FINAL LAB VISIT,FINAL LAB VISIT,"OTHER
EVENT",2013-09-22
CDISCPILOT01,DS,01-701-1239,PROTOCOL COMPLETED,COMPLETED,"DISPOSITION
EVENT",2014-07-11
CDISCPILOT01,DS,01-701-1239,FINAL LAB VISIT,FINAL LAB VISIT,"OTHER
EVENT",2014-07-11
CDISCPILOT01,DS,01-701-1240,SCREEN FAILURE,"SCREEN
FAILURE","DISPOSITION
EVENT",2013-09-22
CDISCPILOT01,DS,01-701-1275,WITHDRAW CONSENT,"WITHDRAWAL
BY SUBJECT","DISPOSITION
EVENT",2014-06-14
CDISCPILOT01,DS,01-701-1275,FINAL LAB VISIT,FINAL LAB VISIT,"OTHER
EVENT",2014-06-14
CDISCPILOT01,DS,01-701-1287,PROTOCOL COMPLETED,COMPLETED,"DISPOSITION
EVENT",2014-07-26
CDISCPILOT01,DS,01-701-1287,FINAL LAB VISIT,FINAL LAB VISIT,"OTHER
EVENT",2014-07-26
CDISCPILOT01,DS,01-701-1294,ADVERSE EVENT,"ADVERSE
EVENT","DISPOSITION
EVENT",2013-06-14
CDISCPILOT01,DS,01-701-1294,FINAL LAB VISIT,FINAL LAB VISIT,"OTHER
EVENT",2013-06-14
CDISCPILOT01,DS,01-701-1294,FINAL RETRIEVAL VISIT,"FINAL
RETRIEVAL
VISIT","OTHER
EVENT",2013-10-08
CDISCPILOT01,DS,01-701-1302,ADVERSE EVENT,"ADVERSE
EVENT","DISPOSITION
EVENT",2013-11-05
CDISCPILOT01,DS,01-701-1302,FINAL LAB VISIT,FINAL LAB VISIT,"OTHER
EVENT",2013-11-05
CDISCPILOT01,DS,01-701-1302,FINAL RETRIEVAL VISIT,"FINAL
RETRIEVAL
VISIT","OTHER
EVENT",2014-02-13
CDISCPILOT01,DS,01-701-1307,SCREEN FAILURE,"SCREEN
FAILURE","DISPOSITION
EVENT",2013-12-08
CDISCPILOT01,DS,01-701-1317,PROTOCOL COMPLETED,COMPLETED,"DISPOSITION
EVENT",2014-11-20
CDISCPILOT01,DS,01-701-1317,FINAL LAB VISIT,FINAL LAB VISIT,"OTHER
EVENT",2014-11-20
CDISCPILOT01,DS,01-701-1324,PROTOCOL COMPLETED,COMPLETED,"DISPOSITION
EVENT",2013-04-02
CDISCPILOT01,DS,01-701-1324,FINAL LAB VISIT,FINAL LAB VISIT,"OTHER
EVENT",2013-04-02
CDISCPILOT01,DS,01-701-1341,ADVERSE EVENT,"ADVERSE
EVENT","DISPOSITION
EVENT",2013-02-07
CDISCPILOT01,DS,01-701-1341,FINAL LAB VISIT,FINAL LAB VISIT,"OTHER
EVENT",2013-02-07
CDISCPILOT01,DS,01-701-1345,"SPONSOR DECISION (STUDY OR
PATIENT DISCONTINUED BY THE
SPONSOR)","STUDY
TERMINATED BY
SPONSOR","DISPOSITION
EVENT",2014-03-18
CDISCPILOT01,DS,01-701-1345,FINAL LAB VISIT,FINAL LAB VISIT,"OTHER
EVENT",2014-03-18
CDISCPILOT01,DS,01-701-1356,SCREEN FAILURE,"SCREEN
FAILURE","DISPOSITION
EVENT",2014-04-01
CDISCPILOT01,DS,01-701-1360,PMD DECISION DUE TO AE'S,"PHYSICIAN
DECISION","DISPOSITION
EVENT",2013-08-14
CDISCPILOT01,DS,01-701-1360,FINAL LAB VISIT,FINAL LAB VISIT,"OTHER
EVENT",2013-08-14
CDISCPILOT01,DS,01-701-1360,FINAL RETRIEVAL VISIT,"FINAL
RETRIEVAL
VISIT","OTHER
EVENT",2014-02-11
CDISCPILOT01,DS,01-701-1363,PROTOCOL COMPLETED,COMPLETED,"DISPOSITION
EVENT",2013-11-27
CDISCPILOT01,DS,01-701-1363,FINAL LAB VISIT,FINAL LAB VISIT,"OTHER
EVENT",2013-11-27
CDISCPILOT01,DS,01-701-1369,SCREEN FAILURE,"SCREEN
FAILURE","DISPOSITION
EVENT",2013-09-18
CDISCPILOT01,DS,01-701-1383,PROTOCOL COMPLETED,COMPLETED,"DISPOSITION
EVENT",2013-08-06
CDISCPILOT01,DS,01-701-1383,FINAL LAB VISIT,FINAL LAB VISIT,"OTHER
EVENT",2013-08-06
CDISCPILOT01,DS,01-701-1386,SCREEN FAILURE,"SCREEN
FAILURE","DISPOSITION
EVENT",2013-12-28
CDISCPILOT01,DS,01-701-1387,PROTOCOL VIOLATION,"PROTOCOL
VIOLATION","DISPOSITION
EVENT",2014-03-25
CDISCPILOT01,DS,01-701-1387,FINAL LAB VISIT,FINAL LAB VISIT,"OTHER
EVENT",2014-03-25
CDISCPILOT01,DS,01-701-1387,FINAL RETRIEVAL VISIT,"FINAL
RETRIEVAL
VISIT","OTHER
EVENT",2014-08-27
CDISCPILOT01,DS,01-701-1392,PROTOCOL COMPLETED,COMPLETED,"DISPOSITION
EVENT",2013-04-28
CDISCPILOT01,DS,01-701-1392,FINAL LAB VISIT,FINAL LAB VISIT,"OTHER
EVENT",2013-04-28
CDISCPILOT01,DS,01-701-1411,SCREEN FAILURE,"SCREEN
FAILURE","DISPOSITION
EVENT",2012-11-14
CDISCPILOT01,DS,01-701-1415,PROTOCOL COMPLETED,COMPLETED,"DISPOSITION
EVENT",2014-03-24
CDISCPILOT01,DS,01-701-1415,FINAL LAB VISIT,FINAL LAB VISIT,"OTHER
EVENT",2014-03-24
CDISCPILOT01,DS,01-701-1429,"WITHDRAW CONSENT DUE TO
COMPLIANCY ISSUE","WITHDRAWAL
BY SUBJECT","DISPOSITION
EVENT",2013-04-30
CDISCPILOT01,DS,01-701-1429,FINAL LAB VISIT,FINAL LAB VISIT,"OTHER
EVENT",2013-04-30
CDISCPILOT01,DS,01-701-1440,PROTOCOL COMPLETED,COMPLETED,"DISPOSITION
EVENT",2014-02-05
CDISCPILOT01,DS,01-701-1440,FINAL LAB VISIT,FINAL LAB VISIT,"OTHER
EVENT",2014-02-05
CDISCPILOT01,DS,01-701-1442,PROTOCOL COMPLETED,COMPLETED,"DISPOSITION
EVENT",2014-04-26
CDISCPILOT01,DS,01-701-1442,FINAL LAB VISIT,FINAL LAB VISIT,"OTHER
EVENT",2014-04-26
CDISCPILOT01,DS,01-701-1444,ADVERSE EVENT,"ADVERSE
EVENT","DISPOSITION
EVENT",2013-02-13
CDISCPILOT01,DS,01-701-1444,FINAL LAB VISIT,FINAL LAB VISIT,"OTHER
EVENT",2013-02-13
CDISCPILOT01,DS,01-701-1444,FINAL RETRIEVAL VISIT,"FINAL
RETRIEVAL
VISIT","OTHER
EVENT",2013-06-20
CDISCPILOT01,DS,01-702-1082,"PT FINDS
PATCHES""INCONVENIENT &
ITCHY;PT PREFERS'PILLS'""","WITHDRAWAL
BY SUBJECT","DISPOSITION
EVENT",2013-11-17
CDISCPILOT01,DS,01-702-1082,FINAL LAB VISIT,FINAL LAB VISIT,"OTHER
EVENT",2013-11-17
CDISCPILOT01,DS,01-703-1042,PROTOCOL COMPLETED,COMPLETED,"DISPOSITION
EVENT",2013-08-31
CDISCPILOT01,DS,01-703-1042,FINAL LAB VISIT,FINAL LAB VISIT,"OTHER
EVENT",2013-08-31
CDISCPILOT01,DS,01-703-1076,ADVERSE EVENT,"ADVERSE
EVENT","DISPOSITION
EVENT",2013-12-24
CDISCPILOT01,DS,01-703-1076,FINAL LAB VISIT,FINAL LAB VISIT,"OTHER
EVENT",2013-12-24
CDISCPILOT01,DS,01-703-1086,ADVERSE EVENT,"ADVERSE
EVENT","DISPOSITION
EVENT",2012-12-24
CDISCPILOT01,DS,01-703-1086,FINAL LAB VISIT,FINAL LAB VISIT,"OTHER
EVENT",2012-12-24
CDISCPILOT01,DS,01-703-1086,FINAL RETRIEVAL VISIT,"FINAL
RETRIEVAL
VISIT","OTHER
EVENT",2013-03-26
CDISCPILOT01,DS,01-703-1096,"UNABLE TO CONTACT PATIENT
(LOST TO FOLLOW-UP)","LOST TO
FOLLOW-UP","DISPOSITION
EVENT",2013-03-29
CDISCPILOT01,DS,01-703-1096,FINAL LAB VISIT,FINAL LAB VISIT,"OTHER
EVENT",2013-02-23
CDISCPILOT01,DS,01-703-1100,PROTOCOL COMPLETED,COMPLETED,"DISPOSITION
EVENT",2013-09-14
CDISCPILOT01,DS,01-703-1100,FINAL LAB VISIT,FINAL LAB VISIT,"OTHER
EVENT",2013-09-14
CDISCPILOT01,DS,01-703-1119,ADVERSE EVENT,"ADVERSE
EVENT","DISPOSITION
EVENT",2013-06-13
CDISCPILOT01,DS,01-703-1119,FINAL LAB VISIT,FINAL LAB VISIT,"OTHER
EVENT",2013-06-13
CDISCPILOT01,DS,01-703-1119,FINAL RETRIEVAL VISIT,"FINAL
RETRIEVAL
VISIT","OTHER
EVENT",2013-08-24
CDISCPILOT01,DS,01-703-1175,"PROTOCOL ENTRY CRITERIA
NOT MET","PROTOCOL
VIOLATION","DISPOSITION
EVENT",2013-12-31
CDISCPILOT01,DS,01-703-1175,FINAL LAB VISIT,FINAL LAB VISIT,"OTHER
EVENT",2013-12-31
CDISCPILOT01,DS,01-703-1182,ADVERSE EVENT,"ADVERSE
EVENT","DISPOSITION
EVENT",2013-12-12
CDISCPILOT01,DS,01-703-1182,FINAL LAB VISIT,FINAL LAB VISIT,"OTHER
EVENT",2013-12-12
CDISCPILOT01,DS,01-703-1197,"CAREGIVER DECISION:  SEE
COMMENT PAGE","WITHDRAWAL
BY SUBJECT","DISPOSITION
EVENT",2013-07-22
CDISCPILOT01,DS,01-703-1197,FINAL LAB VISIT,FINAL LAB VISIT,"OTHER
EVENT",2013-06-01
CDISCPILOT01,DS,01-703-1210,PROTOCOL COMPLETED,COMPLETED,"DISPOSITION
EVENT",2013-09-06
CDISCPILOT01,DS,01-703-1210,FINAL LAB VISIT,FINAL LAB VISIT,"OTHER
EVENT",2013-09-06
CDISCPILOT01,DS,01-703-1258,ADVERSE EVENT,"ADVERSE
EVENT","DISPOSITION
EVENT",2013-01-21
CDISCPILOT01,DS,01-703-1258,FINAL LAB VISIT,FINAL LAB VISIT,"OTHER
EVENT",2012-12-31
CDISCPILOT01,DS,01-703-1279,CAREGIVER BECAME ILL,"WITHDRAWAL
BY SUBJECT","DISPOSITION
EVENT",2013-06-22
CDISCPILOT01,DS,01-703-1279,FINAL LAB VISIT,FINAL LAB VISIT,"OTHER
EVENT",2013-04-27
CDISCPILOT01,DS,01-703-1295,"FAMILY WISHES TO
DISCONTINUE","WITHDRAWAL
BY SUBJECT","DISPOSITION
EVENT",2014-05-19
CDISCPILOT01,DS,01-703-1295,FINAL LAB VISIT,FINAL LAB VISIT,"OTHER
EVENT",2014-05-19
CDISCPILOT01,DS,01-703-1299,PROTOCOL COMPLETED,COMPLETED,"DISPOSITION
EVENT",2013-03-13
CDISCPILOT01,DS,01-703-1299,FINAL LAB VISIT,FINAL LAB VISIT,"OTHER
EVENT",2013-03-13
CDISCPILOT01,DS,01-703-1335,PROTOCOL VIOLATION,"PROTOCOL
VIOLATION","DISPOSITION
EVENT",2014-05-24
CDISCPILOT01,DS,01-703-1335,FINAL LAB VISIT,FINAL LAB VISIT,"OTHER
EVENT",2014-05-24
CDISCPILOT01,DS,01-703-1379,PROTOCOL COMPLETED,COMPLETED,"DISPOSITION
EVENT",2014-03-21
CDISCPILOT01,DS,01-703-1379,FINAL LAB VISIT,FINAL LAB VISIT,"OTHER
EVENT",2014-03-21
CDISCPILOT01,DS,01-703-1396,SCREEN FAILURE,"SCREEN
FAILURE","DISPOSITION
EVENT",2014-02-09
CDISCPILOT01,DS,01-703-1403,ADVERSE EVENT,"ADVERSE
EVENT","DISPOSITION
EVENT",2012-12-19
CDISCPILOT01,DS,01-703-1403,FINAL LAB VISIT,FINAL LAB VISIT,"OTHER
EVENT",2012-12-19
CDISCPILOT01,DS,01-703-1439,PROTOCOL COMPLETED,COMPLETED,"DISPOSITION
EVENT",2014-09-11
CDISCPILOT01,DS,01-703-1439,FINAL LAB VISIT,FINAL LAB VISIT,"OTHER
EVENT",2014-09-11
CDISCPILOT01,DS,01-704-1008,ADVERSE EVENT,"ADVERSE
EVENT","DISPOSITION
EVENT",2013-02-25
CDISCPILOT01,DS,01-704-1008,FINAL LAB VISIT,FINAL LAB VISIT,"OTHER
EVENT",2013-02-25
CDISCPILOT01,DS,01-704-1009,"TOO TIME CONSUMING;PT
REFUSED FUTURE HOLTERS","WITHDRAWAL
BY SUBJECT","DISPOSITION
EVENT",2013-10-02
CDISCPILOT01,DS,01-704-1009,FINAL LAB VISIT,FINAL LAB VISIT,"OTHER
EVENT",2013-09-14
CDISCPILOT01,DS,01-704-1010,PATIENT IS MOVING,"WITHDRAWAL
BY SUBJECT","DISPOSITION
EVENT",2014-07-09
CDISCPILOT01,DS,01-704-1010,FINAL LAB VISIT,FINAL LAB VISIT,"OTHER
EVENT",2014-07-09
CDISCPILOT01,DS,01-704-1017,ADVERSE EVENT,"ADVERSE
EVENT","DISPOSITION
EVENT",2013-11-24
CDISCPILOT01,DS,01-704-1017,FINAL LAB VISIT,FINAL LAB VISIT,"OTHER
EVENT",2013-11-01
CDISCPILOT01,DS,01-704-1025,ADVERSE EVENT,"ADVERSE
EVENT","DISPOSITION
EVENT",2013-11-29
CDISCPILOT01,DS,01-704-1025,FINAL LAB VISIT,FINAL LAB VISIT,"OTHER
EVENT",2013-11-29
CDISCPILOT01,DS,01-704-1065,ADVERSE EVENT,"ADVERSE
EVENT","DISPOSITION
EVENT",2013-12-24
CDISCPILOT01,DS,01-704-1065,FINAL LAB VISIT,FINAL LAB VISIT,"OTHER
EVENT",2013-12-24
CDISCPILOT01,DS,01-704-1074,ADVERSE EVENT,"ADVERSE
EVENT","DISPOSITION
EVENT",2014-03-31
CDISCPILOT01,DS,01-704-1074,FINAL LAB VISIT,FINAL LAB VISIT,"OTHER
EVENT",2014-03-31
CDISCPILOT01,DS,01-704-1093,ADVERSE EVENT,"ADVERSE
EVENT","DISPOSITION
EVENT",2013-06-20
CDISCPILOT01,DS,01-704-1093,FINAL LAB VISIT,FINAL LAB VISIT,"OTHER
EVENT",2013-06-20
CDISCPILOT01,DS,01-704-1093,FINAL RETRIEVAL VISIT,"FINAL
RETRIEVAL
VISIT","OTHER
EVENT",2013-12-25
CDISCPILOT01,DS,01-704-1114,LEAVING AREA FOR 5 MONTHS,"WITHDRAWAL
BY SUBJECT","DISPOSITION
EVENT",2013-07-08
CDISCPILOT01,DS,01-704-1114,FINAL LAB VISIT,FINAL LAB VISIT,"OTHER
EVENT",2013-07-08
CDISCPILOT01,DS,01-704-1120,ADVERSE EVENT,"ADVERSE
EVENT","DISPOSITION
EVENT",2014-02-03
CDISCPILOT01,DS,01-704-1120,FINAL LAB VISIT,FINAL LAB VISIT,"OTHER
EVENT",2014-02-03
CDISCPILOT01,DS,01-704-1127,PROTOCOL COMPLETED,COMPLETED,"DISPOSITION
EVENT",2014-03-31
CDISCPILOT01,DS,01-704-1127,FINAL LAB VISIT,FINAL LAB VISIT,"OTHER
EVENT",2014-03-31
CDISCPILOT01,DS,01-704-1135,PROTOCOL COMPLETED,COMPLETED,"DISPOSITION
EVENT",2014-05-16
CDISCPILOT01,DS,01-704-1135,FINAL LAB VISIT,FINAL LAB VISIT,"OTHER
EVENT",2014-05-16
CDISCPILOT01,DS,01-704-1164,PROTOCOL COMPLETED,COMPLETED,"DISPOSITION
EVENT",2013-04-04
CDISCPILOT01,DS,01-704-1164,FINAL LAB VISIT,FINAL LAB VISIT,"OTHER
EVENT",2013-04-04
CDISCPILOT01,DS,01-704-1218,PROTOCOL COMPLETED,COMPLETED,"DISPOSITION
EVENT",2013-05-27
CDISCPILOT01,DS,01-704-1218,FINAL LAB VISIT,FINAL LAB VISIT,"OTHER
EVENT",2013-05-27
CDISCPILOT01,DS,01-704-1233,WITHDREW CONSENT,"WITHDRAWAL
BY SUBJECT","DISPOSITION
EVENT",2013-07-14
CDISCPILOT01,DS,01-704-1233,FINAL LAB VISIT,FINAL LAB VISIT,"OTHER
EVENT",2013-07-11
CDISCPILOT01,DS,01-704-1241,ADVERSE EVENT,"ADVERSE
EVENT","DISPOSITION
EVENT",2013-10-31
CDISCPILOT01,DS,01-704-1241,FINAL LAB VISIT,FINAL LAB VISIT,"OTHER
EVENT",2013-10-31
CDISCPILOT01,DS,01-704-1260,TOO MANY VISITS,"WITHDRAWAL
BY SUBJECT","DISPOSITION
EVENT",2013-01-18
CDISCPILOT01,DS,01-704-1260,FINAL LAB VISIT,FINAL LAB VISIT,"OTHER
EVENT",2012-10-24
CDISCPILOT01,DS,01-704-1266,ADVERSE EVENT,"ADVERSE
EVENT","DISPOSITION
EVENT",2013-12-06
CDISCPILOT01,DS,01-704-1266,FINAL LAB VISIT,FINAL LAB VISIT,"OTHER
EVENT",2013-12-06
CDISCPILOT01,DS,01-704-1323,ADVERSE EVENT,"ADVERSE
EVENT","DISPOSITION
EVENT",2013-08-08
CDISCPILOT01,DS,01-704-1323,FINAL LAB VISIT,FINAL LAB VISIT,"OTHER
EVENT",2013-08-04
CDISCPILOT01,DS,01-704-1325,PROTOCOL VIOLATION,"PROTOCOL
VIOLATION","DISPOSITION
EVENT",2014-08-06
CDISCPILOT01,DS,01-704-1325,FINAL LAB VISIT,FINAL LAB VISIT,"OTHER
EVENT",2014-08-06
CDISCPILOT01,DS,01-704-1332,ADVERSE EVENT,"ADVERSE
EVENT","DISPOSITION
EVENT",2014-02-16
CDISCPILOT01,DS,01-704-1332,FINAL LAB VISIT,FINAL LAB VISIT,"OTHER
EVENT",2014-02-16
CDISCPILOT01,DS,01-704-1351,PROTOCOL COMPLETED,COMPLETED,"DISPOSITION
EVENT",2014-04-18
CDISCPILOT01,DS,01-704-1351,FINAL LAB VISIT,FINAL LAB VISIT,"OTHER
EVENT",2014-04-18
CDISCPILOT01,DS,01-704-1388,PROTOCOL COMPLETED,COMPLETED,"DISPOSITION
EVENT",2013-06-19
CDISCPILOT01,DS,01-704-1388,FINAL LAB VISIT,FINAL LAB VISIT,"OTHER
EVENT",2013-06-19
CDISCPILOT01,DS,01-704-1435,WITHDREW CONSENT,"WITHDRAWAL
BY SUBJECT","DISPOSITION
EVENT",2013-01-12
CDISCPILOT01,DS,01-704-1435,FINAL LAB VISIT,FINAL LAB VISIT,"OTHER
EVENT",2013-01-12
CDISCPILOT01,DS,01-704-1445,DEATH,DEATH,"DISPOSITION
EVENT",2014-11-01
CDISCPILOT01,DS,01-704-1445,FINAL LAB VISIT,FINAL LAB VISIT,"OTHER
EVENT",2014-10-01
CDISCPILOT01,DS,01-705-1011,SCREEN FAILURE,"SCREEN
FAILURE","DISPOSITION
EVENT",2013-09-01
CDISCPILOT01,DS,01-705-1018,PATIENT WITHDREW CONSENT,"WITHDRAWAL
BY SUBJECT","DISPOSITION
EVENT",2013-07-12
CDISCPILOT01,DS,01-705-1018,FINAL LAB VISIT,FINAL LAB VISIT,"OTHER
EVENT",2013-06-30
CDISCPILOT01,DS,01-705-1031,"UNABLE TO CONTACT PATIENT
(LOST TO FOLLOW-UP)","LOST TO
FOLLOW-UP","DISPOSITION
EVENT",2014-05-11
CDISCPILOT01,DS,01-705-1031,FINAL LAB VISIT,FINAL LAB VISIT,"OTHER
EVENT",2014-05-11
CDISCPILOT01,DS,01-705-1058,SCREEN FAILURE,"SCREEN
FAILURE","DISPOSITION
EVENT",2013-12-02
CDISCPILOT01,DS,01-705-1059,ADVERSE EVENT,"ADVERSE
EVENT","DISPOSITION
EVENT",2013-12-05
CDISCPILOT01,DS,01-705-1059,FINAL LAB VISIT,FINAL LAB VISIT,"OTHER
EVENT",2013-12-05
CDISCPILOT01,DS,01-705-1059,FINAL RETRIEVAL VISIT,"FINAL
RETRIEVAL
VISIT","OTHER
EVENT",2014-02-06
CDISCPILOT01,DS,01-705-1112,SCREEN FAILURE,"SCREEN
FAILURE","DISPOSITION
EVENT",2014-02-23
CDISCPILOT01,DS,01-705-1186,HYPERBILIRUBINEMIA,"PHYSICIAN
DECISION","DISPOSITION
EVENT",2014-02-07
CDISCPILOT01,DS,01-705-1186,FINAL LAB VISIT,FINAL LAB VISIT,"OTHER
EVENT",2014-02-07
CDISCPILOT01,DS,01-705-1199,ADVERSE EVENT,"ADVERSE
EVENT","DISPOSITION
EVENT",2013-09-29
CDISCPILOT01,DS,01-705-1199,FINAL LAB VISIT,FINAL LAB VISIT,"OTHER
EVENT",2013-09-29
CDISCPILOT01,DS,01-705-1243,SCREEN FAILURE,"SCREEN
FAILURE","DISPOSITION
EVENT",2013-02-26
CDISCPILOT01,DS,01-705-1280,PROTOCOL COMPLETED,COMPLETED,"DISPOSITION
EVENT",2014-07-25
CDISCPILOT01,DS,01-705-1280,FINAL LAB VISIT,FINAL LAB VISIT,"OTHER
EVENT",2014-07-24
CDISCPILOT01,DS,01-705-1281,ADVERSE EVENT,"ADVERSE
EVENT","DISPOSITION
EVENT",2014-03-17
CDISCPILOT01,DS,01-705-1281,FINAL LAB VISIT,FINAL LAB VISIT,"OTHER
EVENT",2014-03-17
CDISCPILOT01,DS,01-705-1282,PROTOCOL COMPLETED,COMPLETED,"DISPOSITION
EVENT",2013-06-24
CDISCPILOT01,DS,01-705-1282,FINAL LAB VISIT,FINAL LAB VISIT,"OTHER
EVENT",2013-06-24
CDISCPILOT01,DS,01-705-1292,PROTOCOL COMPLETED,COMPLETED,"DISPOSITION
EVENT",2014-05-14
CDISCPILOT01,DS,01-705-1292,FINAL LAB VISIT,FINAL LAB VISIT,"OTHER
EVENT",2014-05-14
CDISCPILOT01,DS,01-705-1303,ADVERSE EVENT,"ADVERSE
EVENT","DISPOSITION
EVENT",2014-06-02
CDISCPILOT01,DS,01-705-1303,FINAL LAB VISIT,FINAL LAB VISIT,"OTHER
EVENT",2014-04-07
CDISCPILOT01,DS,01-705-1310,ADVERSE EVENT,"ADVERSE
EVENT","DISPOSITION
EVENT",2014-01-23
CDISCPILOT01,DS,01-705-1310,FINAL LAB VISIT,FINAL LAB VISIT,"OTHER
EVENT",2014-01-23
CDISCPILOT01,DS,01-705-1349,PROTOCOL COMPLETED,COMPLETED,"DISPOSITION
EVENT",2013-09-08
CDISCPILOT01,DS,01-705-1349,FINAL LAB VISIT,FINAL LAB VISIT,"OTHER
EVENT",2013-09-08
CDISCPILOT01,DS,01-705-1377,PATIENT WITHDREW CONSENT,"WITHDRAWAL
BY SUBJECT","DISPOSITION
EVENT",2014-03-07
CDISCPILOT01,DS,01-705-1377,FINAL LAB VISIT,FINAL LAB VISIT,"OTHER
EVENT",2014-02-07
CDISCPILOT01,DS,01-705-1382,"PROTOCOL ENTRY CRITERIA
NOT MET","PROTOCOL
VIOLATION","DISPOSITION
EVENT",2013-05-13
CDISCPILOT01,DS,01-705-1382,FINAL LAB VISIT,FINAL LAB VISIT,"OTHER
EVENT",2013-05-09
CDISCPILOT01,DS,01-705-1393,ADVERSE EVENT,"ADVERSE
EVENT","DISPOSITION
EVENT",2013-02-20
CDISCPILOT01,DS,01-705-1393,FINAL LAB VISIT,FINAL LAB VISIT,"OTHER
EVENT",2013-02-20
CDISCPILOT01,DS,01-705-1421,SCREEN FAILURE,"SCREEN
FAILURE","DISPOSITION
EVENT",2013-01-14
CDISCPILOT01,DS,01-705-1431,PROTOCOL COMPLETED,COMPLETED,"DISPOSITION
EVENT",2013-12-19
CDISCPILOT01,DS,01-705-1431,FINAL LAB VISIT,FINAL LAB VISIT,"OTHER
EVENT",2013-12-19
CDISCPILOT01,DS,01-706-1041,PROTOCOL COMPLETED,COMPLETED,"DISPOSITION
EVENT",2014-07-29
CDISCPILOT01,DS,01-706-1041,FINAL LAB VISIT,FINAL LAB VISIT,"OTHER
EVENT",2014-07-29
CDISCPILOT01,DS,01-706-1049,ADVERSE EVENT,"ADVERSE
EVENT","DISPOSITION
EVENT",2013-06-25
CDISCPILOT01,DS,01-706-1049,FINAL LAB VISIT,FINAL LAB VISIT,"OTHER
EVENT",2013-06-25
CDISCPILOT01,DS,01-706-1049,FINAL RETRIEVAL VISIT,"FINAL
RETRIEVAL
VISIT","OTHER
EVENT",2013-11-26
CDISCPILOT01,DS,01-706-1384,ADVERSE EVENT,"ADVERSE
EVENT","DISPOSITION
EVENT",2012-09-29
CDISCPILOT01,DS,01-706-1384,FINAL LAB VISIT,FINAL LAB VISIT,"OTHER
EVENT",2012-09-29
CDISCPILOT01,DS,01-706-1384,FINAL RETRIEVAL VISIT,"FINAL
RETRIEVAL
VISIT","OTHER
EVENT",2013-06-22
CDISCPILOT01,DS,01-707-1037,WITHDRAWS CONSENT,"WITHDRAWAL
BY SUBJECT","DISPOSITION
EVENT",2014-01-08
CDISCPILOT01,DS,01-707-1037,FINAL LAB VISIT,FINAL LAB VISIT,"OTHER
EVENT",2014-01-08
CDISCPILOT01,DS,01-707-1206,PROTOCOL COMPLETED,COMPLETED,"DISPOSITION
EVENT",2014-04-27
CDISCPILOT01,DS,01-707-1206,FINAL LAB VISIT,FINAL LAB VISIT,"OTHER
EVENT",2014-04-27
CDISCPILOT01,DS,01-707-1276,SCREEN FAILURE,"SCREEN
FAILURE","DISPOSITION
EVENT",2012-10-12
CDISCPILOT01,DS,01-707-1430,SCREEN FAILURE,"SCREEN
FAILURE","DISPOSITION
EVENT",2014-02-14
CDISCPILOT01,DS,01-707-1434,SCREEN FAILURE,"SCREEN
FAILURE","DISPOSITION
EVENT",2013-07-25
CDISCPILOT01,DS,01-708-1013,SCREEN FAILURE,"SCREEN
FAILURE","DISPOSITION
EVENT",2012-10-13
CDISCPILOT01,DS,01-708-1019,ADVERSE EVENT,"ADVERSE
EVENT","DISPOSITION
EVENT",2014-01-23
CDISCPILOT01,DS,01-708-1019,FINAL LAB VISIT,FINAL LAB VISIT,"OTHER
EVENT",2014-01-23
CDISCPILOT01,DS,01-708-1032,ADVERSE EVENT,"ADVERSE
EVENT","DISPOSITION
EVENT",2013-03-09
CDISCPILOT01,DS,01-708-1032,FINAL LAB VISIT,FINAL LAB VISIT,"OTHER
EVENT",2013-03-09
CDISCPILOT01,DS,01-708-1054,SCREEN FAILURE,"SCREEN
FAILURE","DISPOSITION
EVENT",2014-02-14
CDISCPILOT01,DS,01-708-1067,SCREEN FAILURE,"SCREEN
FAILURE","DISPOSITION
EVENT",2013-02-07
CDISCPILOT01,DS,01-708-1084,PROTOCOL COMPLETED,COMPLETED,"DISPOSITION
EVENT",2013-11-11
CDISCPILOT01,DS,01-708-1084,FINAL LAB VISIT,FINAL LAB VISIT,"OTHER
EVENT",2013-11-11
CDISCPILOT01,DS,01-708-1087,PROTOCOL COMPLETED,COMPLETED,"DISPOSITION
EVENT",2013-04-28
CDISCPILOT01,DS,01-708-1087,FINAL LAB VISIT,FINAL LAB VISIT,"OTHER
EVENT",2013-04-28
CDISCPILOT01,DS,01-708-1104,SCREEN FAILURE,"SCREEN
FAILURE","DISPOSITION
EVENT",2014-01-23
CDISCPILOT01,DS,01-708-1158,ADVERSE EVENT,"ADVERSE
EVENT","DISPOSITION
EVENT",2014-03-22
CDISCPILOT01,DS,01-708-1158,FINAL LAB VISIT,FINAL LAB VISIT,"OTHER
EVENT",2014-03-22
CDISCPILOT01,DS,01-708-1171,PROTOCOL COMPLETED,COMPLETED,"DISPOSITION
EVENT",2013-06-04
CDISCPILOT01,DS,01-708-1171,FINAL LAB VISIT,FINAL LAB VISIT,"OTHER
EVENT",2013-06-03
CDISCPILOT01,DS,01-708-1178,"DR PUT PT ON AN EXCLUDED
MEDICATION","PHYSICIAN
DECISION","DISPOSITION
EVENT",2014-04-06
CDISCPILOT01,DS,01-708-1178,FINAL LAB VISIT,FINAL LAB VISIT,"OTHER
EVENT",2014-04-06
CDISCPILOT01,DS,01-708-1184,SCREEN FAILURE,"SCREEN
FAILURE","DISPOSITION
EVENT",2013-01-14
CDISCPILOT01,DS,01-708-1213,ADVERSE EVENT,"ADVERSE
EVENT","DISPOSITION
EVENT",2013-02-26
CDISCPILOT01,DS,01-708-1213,FINAL LAB VISIT,FINAL LAB VISIT,"OTHER
EVENT",2013-02-22
CDISCPILOT01,DS,01-708-1216,ADVERSE EVENT,"ADVERSE
EVENT","DISPOSITION
EVENT",2012-12-06
CDISCPILOT01,DS,01-708-1216,FINAL LAB VISIT,FINAL LAB VISIT,"OTHER
EVENT",2012-12-06
CDISCPILOT01,DS,01-708-1236,PATIENT WITHDREW CONSENT,"WITHDRAWAL
BY SUBJECT","DISPOSITION
EVENT",2013-09-26
CDISCPILOT01,DS,01-708-1236,FINAL LAB VISIT,FINAL LAB VISIT,"OTHER
EVENT",2013-09-19
CDISCPILOT01,DS,01-708-1242,SCREEN FAILURE,"SCREEN
FAILURE","DISPOSITION
EVENT",2012-08-13
CDISCPILOT01,DS,01-708-1253,PROTOCOL COMPLETED,COMPLETED,"DISPOSITION
EVENT",2013-11-05
CDISCPILOT01,DS,01-708-1253,FINAL LAB VISIT,FINAL LAB VISIT,"OTHER
EVENT",2013-11-04
CDISCPILOT01,DS,01-708-1272,PATCH DISCOMFORT,"WITHDRAWAL
BY SUBJECT","DISPOSITION
EVENT",2013-04-04
CDISCPILOT01,DS,01-708-1272,FINAL LAB VISIT,FINAL LAB VISIT,"OTHER
EVENT",2013-04-04
CDISCPILOT01,DS,01-708-1286,PROTOCOL COMPLETED,COMPLETED,"DISPOSITION
EVENT",2014-03-08
CDISCPILOT01,DS,01-708-1286,FINAL LAB VISIT,FINAL LAB VISIT,"OTHER
EVENT",2014-03-08
CDISCPILOT01,DS,01-708-1296,PROTOCOL COMPLETED,COMPLETED,"DISPOSITION
EVENT",2013-12-12
CDISCPILOT01,DS,01-708-1296,FINAL LAB VISIT,FINAL LAB VISIT,"OTHER
EVENT",2013-12-12
CDISCPILOT01,DS,01-708-1297,ADVERSE EVENT,"ADVERSE
EVENT","DISPOSITION
EVENT",2013-05-08
CDISCPILOT01,DS,01-708-1297,FINAL LAB VISIT,FINAL LAB VISIT,"OTHER
EVENT",2013-05-08
CDISCPILOT01,DS,01-708-1316,PROTOCOL COMPLETED,COMPLETED,"DISPOSITION
EVENT",2014-03-01
CDISCPILOT01,DS,01-708-1316,FINAL LAB VISIT,FINAL LAB VISIT,"OTHER
EVENT",2014-03-01
CDISCPILOT01,DS,01-708-1336,PROTOCOL COMPLETED,COMPLETED,"DISPOSITION
EVENT",2013-06-05
CDISCPILOT01,DS,01-708-1336,FINAL LAB VISIT,FINAL LAB VISIT,"OTHER
EVENT",2013-06-05
CDISCPILOT01,DS,01-708-1342,PROTOCOL COMPLETED,COMPLETED,"DISPOSITION
EVENT",2013-06-28
CDISCPILOT01,DS,01-708-1342,FINAL LAB VISIT,FINAL LAB VISIT,"OTHER
EVENT",2013-06-28
CDISCPILOT01,DS,01-708-1347,ADVERSE EVENT,"ADVERSE
EVENT","DISPOSITION
EVENT",2013-06-18
CDISCPILOT01,DS,01-708-1347,FINAL LAB VISIT,FINAL LAB VISIT,"OTHER
EVENT",2013-06-18
CDISCPILOT01,DS,01-708-1348,PROTOCOL COMPLETED,COMPLETED,"DISPOSITION
EVENT",2014-02-13
CDISCPILOT01,DS,01-708-1348,FINAL LAB VISIT,FINAL LAB VISIT,"OTHER
EVENT",2014-02-13
CDISCPILOT01,DS,01-708-1352,SCREEN FAILURE,"SCREEN
FAILURE","DISPOSITION
EVENT",2013-09-16
CDISCPILOT01,DS,01-708-1353,ADVERSE EVENT,"ADVERSE
EVENT","DISPOSITION
EVENT",2013-09-10
CDISCPILOT01,DS,01-708-1353,FINAL LAB VISIT,FINAL LAB VISIT,"OTHER
EVENT",2013-09-10
CDISCPILOT01,DS,01-708-1372,"PROTOCOL ENTRY CRITERIA
NOT MET","PROTOCOL
VIOLATION","DISPOSITION
EVENT",2013-05-10
CDISCPILOT01,DS,01-708-1372,FINAL LAB VISIT,FINAL LAB VISIT,"OTHER
EVENT",2013-04-03
CDISCPILOT01,DS,01-708-1378,"SPONSOR DECISION (STUDY OR
PATIENT DISCONTINUED BY THE
SPONSOR)","STUDY
TERMINATED BY
SPONSOR","DISPOSITION
EVENT",2014-01-28
CDISCPILOT01,DS,01-708-1378,FINAL LAB VISIT,FINAL LAB VISIT,"OTHER
EVENT",2014-01-28
CDISCPILOT01,DS,01-708-1406,PROTOCOL COMPLETED,COMPLETED,"DISPOSITION
EVENT",2014-07-02
CDISCPILOT01,DS,01-708-1406,FINAL LAB VISIT,FINAL LAB VISIT,"OTHER
EVENT",2014-07-02
CDISCPILOT01,DS,01-708-1428,ADVERSE EVENT,"ADVERSE
EVENT","DISPOSITION
EVENT",2014-01-31
CDISCPILOT01,DS,01-708-1428,FINAL LAB VISIT,FINAL LAB VISIT,"OTHER
EVENT",2014-01-31
CDISCPILOT01,DS,01-709-1001,PROTOCOL COMPLETED,COMPLETED,"DISPOSITION
EVENT",2014-04-08
CDISCPILOT01,DS,01-709-1001,FINAL LAB VISIT,FINAL LAB VISIT,"OTHER
EVENT",2014-03-17
CDISCPILOT01,DS,01-709-1007,ADVERSE EVENT,"ADVERSE
EVENT","DISPOSITION
EVENT",2012-09-01
CDISCPILOT01,DS,01-709-1007,FINAL LAB VISIT,FINAL LAB VISIT,"OTHER
EVENT",2012-09-01
CDISCPILOT01,DS,01-709-1020,PROTOCOL COMPLETED,COMPLETED,"DISPOSITION
EVENT",2013-06-01
CDISCPILOT01,DS,01-709-1020,FINAL LAB VISIT,FINAL LAB VISIT,"OTHER
EVENT",2013-06-01
CDISCPILOT01,DS,01-709-1029,PROTOCOL COMPLETED,COMPLETED,"DISPOSITION
EVENT",2013-06-26
CDISCPILOT01,DS,01-709-1029,FINAL LAB VISIT,FINAL LAB VISIT,"OTHER
EVENT",2013-06-26
CDISCPILOT01,DS,01-709-1081,ADVERSE EVENT,"ADVERSE
EVENT","DISPOSITION
EVENT",2014-05-10
CDISCPILOT01,DS,01-709-1081,FINAL LAB VISIT,FINAL LAB VISIT,"OTHER
EVENT",2014-05-10
CDISCPILOT01,DS,01-709-1088,PROTOCOL COMPLETED,COMPLETED,"DISPOSITION
EVENT",2014-10-09
CDISCPILOT01,DS,01-709-1088,FINAL LAB VISIT,FINAL LAB VISIT,"OTHER
EVENT",2014-10-09
CDISCPILOT01,DS,01-709-1099,PROTOCOL COMPLETED,COMPLETED,"DISPOSITION
EVENT",2014-04-25
CDISCPILOT01,DS,01-709-1099,FINAL LAB VISIT,FINAL LAB VISIT,"OTHER
EVENT",2014-04-25
CDISCPILOT01,DS,01-709-1102,ADVERSE EVENT,"ADVERSE
EVENT","DISPOSITION
EVENT",2013-03-31
CDISCPILOT01,DS,01-709-1102,FINAL LAB VISIT,FINAL LAB VISIT,"OTHER
EVENT",2013-03-31
CDISCPILOT01,DS,01-709-1168,ADVERSE EVENT,"ADVERSE
EVENT","DISPOSITION
EVENT",2013-09-27
CDISCPILOT01,DS,01-709-1168,FINAL LAB VISIT,FINAL LAB VISIT,"OTHER
EVENT",2013-09-27
CDISCPILOT01,DS,01-709-1217,ADVERSE EVENT,"ADVERSE
EVENT","DISPOSITION
EVENT",2013-06-25
CDISCPILOT01,DS,01-709-1217,FINAL LAB VISIT,FINAL LAB VISIT,"OTHER
EVENT",2013-06-25
CDISCPILOT01,DS,01-709-1224,SCREEN FAILURE,"SCREEN
FAILURE","DISPOSITION
EVENT",2013-11-18
CDISCPILOT01,DS,01-709-1237,SCREEN FAILURE,"SCREEN
FAILURE","DISPOSITION
EVENT",2014-01-17
CDISCPILOT01,DS,01-709-1238,ADVERSE EVENT,"ADVERSE
EVENT","DISPOSITION
EVENT",2013-08-07
CDISCPILOT01,DS,01-709-1238,FINAL LAB VISIT,FINAL LAB VISIT,"OTHER
EVENT",2013-08-07
CDISCPILOT01,DS,01-709-1259,"LACK OF EFFICACY, PATIENT
CAREGIVER PERCEPTION","LACK OF
EFFICACY","DISPOSITION
EVENT",2013-06-13
CDISCPILOT01,DS,01-709-1259,FINAL LAB VISIT,FINAL LAB VISIT,"OTHER
EVENT",2013-06-13
CDISCPILOT01,DS,01-709-1285,"SPONSOR DECISION (STUDY OR
PATIENT DISCONTINUED BY THE
SPONSOR)","STUDY
TERMINATED BY
SPONSOR","DISPOSITION
EVENT",2013-05-31
CDISCPILOT01,DS,01-709-1285,FINAL LAB VISIT,FINAL LAB VISIT,"OTHER
EVENT",2013-05-31
CDISCPILOT01,DS,01-709-1301,PROTOCOL COMPLETED,COMPLETED,"DISPOSITION
EVENT",2014-01-17
CDISCPILOT01,DS,01-709-1301,FINAL LAB VISIT,FINAL LAB VISIT,"OTHER
EVENT",2014-01-17
CDISCPILOT01,DS,01-709-1306,ADVERSE EVENT,"ADVERSE
EVENT","DISPOSITION
EVENT",2014-06-25
CDISCPILOT01,DS,01-709-1306,FINAL LAB VISIT,FINAL LAB VISIT,"OTHER
EVENT",2014-06-25
CDISCPILOT01,DS,01-709-1309,PROTOCOL COMPLETED,COMPLETED,"DISPOSITION
EVENT",2013-12-19
CDISCPILOT01,DS,01-709-1309,FINAL LAB VISIT,FINAL LAB VISIT,"OTHER
EVENT",2013-12-19
CDISCPILOT01,DS,01-709-1312,PROTOCOL COMPLETED,COMPLETED,"DISPOSITION
EVENT",2014-10-19
CDISCPILOT01,DS,01-709-1312,FINAL LAB VISIT,FINAL LAB VISIT,"OTHER
EVENT",2014-10-19
CDISCPILOT01,DS,01-709-1326,PROTOCOL COMPLETED,COMPLETED,"DISPOSITION
EVENT",2013-10-02
CDISCPILOT01,DS,01-709-1326,FINAL LAB VISIT,FINAL LAB VISIT,"OTHER
EVENT",2013-10-02
CDISCPILOT01,DS,01-709-1329,CAREGIVER BURDEN,"WITHDRAWAL
BY SUBJECT","DISPOSITION
EVENT",2013-08-29
CDISCPILOT01,DS,01-709-1329,FINAL LAB VISIT,FINAL LAB VISIT,"OTHER
EVENT",2013-08-29
CDISCPILOT01,DS,01-709-1339,PROTOCOL COMPLETED,COMPLETED,"DISPOSITION
EVENT",2013-06-24
CDISCPILOT01,DS,01-709-1339,FINAL LAB VISIT,FINAL LAB VISIT,"OTHER
EVENT",2013-06-24
CDISCPILOT01,DS,01-709-1424,ADVERSE EVENT,"ADVERSE
EVENT","DISPOSITION
EVENT",2013-03-08
CDISCPILOT01,DS,01-709-1424,FINAL LAB VISIT,FINAL LAB VISIT,"OTHER
EVENT",2013-03-17
CDISCPILOT01,DS,01-710-1002,ADVERSE EVENT,"ADVERSE
EVENT","DISPOSITION
EVENT",2014-01-18
CDISCPILOT01,DS,01-710-1002,FINAL LAB VISIT,FINAL LAB VISIT,"OTHER
EVENT",2014-01-18
CDISCPILOT01,DS,01-710-1006,PROTOCOL COMPLETED,COMPLETED,"DISPOSITION
EVENT",2013-08-10
CDISCPILOT01,DS,01-710-1006,FINAL LAB VISIT,FINAL LAB VISIT,"OTHER
EVENT",2013-08-10
CDISCPILOT01,DS,01-710-1021,ADVERSE EVENT,"ADVERSE
EVENT","DISPOSITION
EVENT",2013-11-12
CDISCPILOT01,DS,01-710-1021,FINAL LAB VISIT,FINAL LAB VISIT,"OTHER
EVENT",2013-11-12
CDISCPILOT01,DS,01-710-1027,PROTOCOL COMPLETED,COMPLETED,"DISPOSITION
EVENT",2014-08-29
CDISCPILOT01,DS,01-710-1027,FINAL LAB VISIT,FINAL LAB VISIT,"OTHER
EVENT",2014-08-29
CDISCPILOT01,DS,01-710-1045,ADVERSE EVENT,"ADVERSE
EVENT","DISPOSITION
EVENT",2013-08-17
CDISCPILOT01,DS,01-710-1045,FINAL LAB VISIT,FINAL LAB VISIT,"OTHER
EVENT",2013-08-17
CDISCPILOT01,DS,01-710-1053,ADVERSE EVENT,"ADVERSE
EVENT","DISPOSITION
EVENT",2013-02-15
CDISCPILOT01,DS,01-710-1053,FINAL LAB VISIT,FINAL LAB VISIT,"OTHER
EVENT",2013-02-26
CDISCPILOT01,DS,01-710-1060,PROTOCOL COMPLETED,COMPLETED,"DISPOSITION
EVENT",2013-07-05
CDISCPILOT01,DS,01-710-1060,FINAL LAB VISIT,FINAL LAB VISIT,"OTHER
EVENT",2013-07-05
CDISCPILOT01,DS,01-710-1070,ADVERSE EVENT,"ADVERSE
EVENT","DISPOSITION
EVENT",2013-02-23
CDISCPILOT01,DS,01-710-1070,FINAL LAB VISIT,FINAL LAB VISIT,"OTHER
EVENT",2012-12-28
CDISCPILOT01,DS,01-710-1077,PROTOCOL COMPLETED,COMPLETED,"DISPOSITION
EVENT",2014-05-18
CDISCPILOT01,DS,01-710-1077,FINAL LAB VISIT,FINAL LAB VISIT,"OTHER
EVENT",2014-05-18
CDISCPILOT01,DS,01-710-1078,PROTOCOL COMPLETED,COMPLETED,"DISPOSITION
EVENT",2014-03-23
CDISCPILOT01,DS,01-710-1078,FINAL LAB VISIT,FINAL LAB VISIT,"OTHER
EVENT",2014-03-23
CDISCPILOT01,DS,01-710-1083,DEATH,DEATH,"DISPOSITION
EVENT",2013-08-02
CDISCPILOT01,DS,01-710-1083,FINAL LAB VISIT,FINAL LAB VISIT,"OTHER
EVENT",2013-07-09
CDISCPILOT01,DS,01-710-1129,SCREEN FAILURE,"SCREEN
FAILURE","DISPOSITION
EVENT",2013-03-05
CDISCPILOT01,DS,01-710-1137,ADVERSE EVENT,"ADVERSE
EVENT","DISPOSITION
EVENT",2013-11-13
CDISCPILOT01,DS,01-710-1137,FINAL LAB VISIT,FINAL LAB VISIT,"OTHER
EVENT",2013-11-13
CDISCPILOT01,DS,01-710-1142,ADVERSE EVENT,"ADVERSE
EVENT","DISPOSITION
EVENT",2012-10-23
CDISCPILOT01,DS,01-710-1142,FINAL LAB VISIT,FINAL LAB VISIT,"OTHER
EVENT",2012-10-23
CDISCPILOT01,DS,01-710-1149,SCREEN FAILURE,"SCREEN
FAILURE","DISPOSITION
EVENT",2013-11-16
CDISCPILOT01,DS,01-710-1154,ADVERSE EVENT,"ADVERSE
EVENT","DISPOSITION
EVENT",2014-05-09
CDISCPILOT01,DS,01-710-1154,FINAL LAB VISIT,FINAL LAB VISIT,"OTHER
EVENT",2014-05-09
CDISCPILOT01,DS,01-710-1166,ADVERSE EVENT,"ADVERSE
EVENT","DISPOSITION
EVENT",2013-03-30
CDISCPILOT01,DS,01-710-1166,FINAL LAB VISIT,FINAL LAB VISIT,"OTHER
EVENT",2013-03-30
CDISCPILOT01,DS,01-710-1183,PROTOCOL COMPLETED,COMPLETED,"DISPOSITION
EVENT",2014-05-17
CDISCPILOT01,DS,01-710-1183,FINAL LAB VISIT,FINAL LAB VISIT,"OTHER
EVENT",2014-05-17
CDISCPILOT01,DS,01-710-1187,PROTOCOL COMPLETED,COMPLETED,"DISPOSITION
EVENT",2013-05-12
CDISCPILOT01,DS,01-710-1187,FINAL LAB VISIT,FINAL LAB VISIT,"OTHER
EVENT",2013-05-12
CDISCPILOT01,DS,01-710-1235,PROTOCOL COMPLETED,COMPLETED,"DISPOSITION
EVENT",2013-03-27
CDISCPILOT01,DS,01-710-1235,FINAL LAB VISIT,FINAL LAB VISIT,"OTHER
EVENT",2013-03-27
CDISCPILOT01,DS,01-710-1249,PROTOCOL COMPLETED,COMPLETED,"DISPOSITION
EVENT",2014-06-28
CDISCPILOT01,DS,01-710-1249,FINAL LAB VISIT,FINAL LAB VISIT,"OTHER
EVENT",2014-06-28
CDISCPILOT01,DS,01-710-1257,SCREEN FAILURE,"SCREEN
FAILURE","DISPOSITION
EVENT",2013-11-29
CDISCPILOT01,DS,01-710-1264,ADVERSE EVENT,"ADVERSE
EVENT","DISPOSITION
EVENT",2013-10-12
CDISCPILOT01,DS,01-710-1264,FINAL LAB VISIT,FINAL LAB VISIT,"OTHER
EVENT",2013-10-12
CDISCPILOT01,DS,01-710-1270,ADVERSE EVENT,"ADVERSE
EVENT","DISPOSITION
EVENT",2014-03-01
CDISCPILOT01,DS,01-710-1270,FINAL LAB VISIT,FINAL LAB VISIT,"OTHER
EVENT",2014-03-01
CDISCPILOT01,DS,01-710-1271,ADVERSE EVENT,"ADVERSE
EVENT","DISPOSITION
EVENT",2012-12-02
CDISCPILOT01,DS,01-710-1271,FINAL LAB VISIT,FINAL LAB VISIT,"OTHER
EVENT",2012-11-08
CDISCPILOT01,DS,01-710-1278,ADVERSE EVENT,"ADVERSE
EVENT","DISPOSITION
EVENT",2013-03-03
CDISCPILOT01,DS,01-710-1278,FINAL LAB VISIT,FINAL LAB VISIT,"OTHER
EVENT",2013-03-07
CDISCPILOT01,DS,01-710-1300,ADVERSE EVENT,"ADVERSE
EVENT","DISPOSITION
EVENT",2013-02-19
CDISCPILOT01,DS,01-710-1300,FINAL LAB VISIT,FINAL LAB VISIT,"OTHER
EVENT",2013-02-19
CDISCPILOT01,DS,01-710-1314,"PATIENT REFUSES TO
CONTINUE","WITHDRAWAL
BY SUBJECT","DISPOSITION
EVENT",2013-05-25
CDISCPILOT01,DS,01-710-1314,FINAL LAB VISIT,FINAL LAB VISIT,"OTHER
EVENT",2013-05-23
CDISCPILOT01,DS,01-710-1315,ADVERSE EVENT,"ADVERSE
EVENT","DISPOSITION
EVENT",2013-07-16
CDISCPILOT01,DS,01-710-1315,FINAL LAB VISIT,FINAL LAB VISIT,"OTHER
EVENT",2013-07-16
CDISCPILOT01,DS,01-710-1337,SCREEN FAILURE,"SCREEN
FAILURE","DISPOSITION
EVENT",2013-12-30
CDISCPILOT01,DS,01-710-1354,PROTOCOL COMPLETED,COMPLETED,"DISPOSITION
EVENT",2013-05-01
CDISCPILOT01,DS,01-710-1354,FINAL LAB VISIT,FINAL LAB VISIT,"OTHER
EVENT",2013-05-01
CDISCPILOT01,DS,01-710-1358,"CAREGIVER WAS
HOSPITALIZED;SEE COMMENTS","WITHDRAWAL
BY SUBJECT","DISPOSITION
EVENT",2013-03-12
CDISCPILOT01,DS,01-710-1358,FINAL LAB VISIT,FINAL LAB VISIT,"OTHER
EVENT",2013-02-06
CDISCPILOT01,DS,01-710-1368,PROTOCOL COMPLETED,COMPLETED,"DISPOSITION
EVENT",2014-04-24
CDISCPILOT01,DS,01-710-1368,FINAL LAB VISIT,FINAL LAB VISIT,"OTHER
EVENT",2014-04-24
CDISCPILOT01,DS,01-710-1376,SCREEN FAILURE,"SCREEN
FAILURE","DISPOSITION
EVENT",2014-04-21
CDISCPILOT01,DS,01-710-1380,SCREEN FAILURE,"SCREEN
FAILURE","DISPOSITION
EVENT",2013-06-02
CDISCPILOT01,DS,01-710-1385,ADVERSE EVENT,"ADVERSE
EVENT","DISPOSITION
EVENT",2013-02-18
CDISCPILOT01,DS,01-710-1385,FINAL LAB VISIT,FINAL LAB VISIT,"OTHER
EVENT",2013-02-18
CDISCPILOT01,DS,01-710-1408,PROTOCOL COMPLETED,COMPLETED,"DISPOSITION
EVENT",2013-07-12
CDISCPILOT01,DS,01-710-1408,FINAL LAB VISIT,FINAL LAB VISIT,"OTHER
EVENT",2013-07-12
CDISCPILOT01,DS,01-710-1443,SCREEN FAILURE,"SCREEN
FAILURE","DISPOSITION
EVENT",2013-12-13
CDISCPILOT01,DS,01-711-1012,ADVERSE EVENT,"ADVERSE
EVENT","DISPOSITION
EVENT",2013-05-02
CDISCPILOT01,DS,01-711-1012,FINAL LAB VISIT,FINAL LAB VISIT,"OTHER
EVENT",2013-05-02
CDISCPILOT01,DS,01-711-1012,FINAL RETRIEVAL VISIT,"FINAL
RETRIEVAL
VISIT","OTHER
EVENT",2013-09-18
CDISCPILOT01,DS,01-711-1022,SCREEN FAILURE,"SCREEN
FAILURE","DISPOSITION
EVENT",2014-03-17
CDISCPILOT01,DS,01-711-1036,PROTOCOL COMPLETED,COMPLETED,"DISPOSITION
EVENT",2013-02-10
CDISCPILOT01,DS,01-711-1036,FINAL LAB VISIT,FINAL LAB VISIT,"OTHER
EVENT",2013-02-10
CDISCPILOT01,DS,01-711-1143,ADVERSE EVENT,"ADVERSE
EVENT","DISPOSITION
EVENT",2013-06-01
CDISCPILOT01,DS,01-711-1143,FINAL LAB VISIT,FINAL LAB VISIT,"OTHER
EVENT",2013-06-01
CDISCPILOT01,DS,01-711-1143,FINAL RETRIEVAL VISIT,"FINAL
RETRIEVAL
VISIT","OTHER
EVENT",2013-09-22
CDISCPILOT01,DS,01-711-1163,SCREEN FAILURE,"SCREEN
FAILURE","DISPOSITION
EVENT",2012-11-08
CDISCPILOT01,DS,01-711-1173,SCREEN FAILURE,"SCREEN
FAILURE","DISPOSITION
EVENT",2012-10-04
CDISCPILOT01,DS,01-711-1226,SCREEN FAILURE,"SCREEN
FAILURE","DISPOSITION
EVENT",2013-10-24
CDISCPILOT01,DS,01-711-1251,SCREEN FAILURE,"SCREEN
FAILURE","DISPOSITION
EVENT",2014-02-28
CDISCPILOT01,DS,01-711-1283,SCREEN FAILURE,"SCREEN
FAILURE","DISPOSITION
EVENT",2014-03-27
CDISCPILOT01,DS,01-711-1284,SCREEN FAILURE,"SCREEN
FAILURE","DISPOSITION
EVENT",2013-08-05
CDISCPILOT01,DS,01-711-1290,SCREEN FAILURE,"SCREEN
FAILURE","DISPOSITION
EVENT",2013-12-20
CDISCPILOT01,DS,01-711-1433,ADVERSE EVENT,"ADVERSE
EVENT","DISPOSITION
EVENT",2013-02-06
CDISCPILOT01,DS,01-711-1433,FINAL LAB VISIT,FINAL LAB VISIT,"OTHER
EVENT",2013-02-06
CDISCPILOT01,DS,01-713-1043,PROTOCOL COMPLETED,COMPLETED,"DISPOSITION
EVENT",2014-03-24
CDISCPILOT01,DS,01-713-1043,FINAL LAB VISIT,FINAL LAB VISIT,"OTHER
EVENT",2014-03-24
CDISCPILOT01,DS,01-713-1073,PROTOCOL COMPLETED,COMPLETED,"DISPOSITION
EVENT",2014-10-05
CDISCPILOT01,DS,01-713-1073,FINAL LAB VISIT,FINAL LAB VISIT,"OTHER
EVENT",2014-10-05
CDISCPILOT01,DS,01-713-1106,PROTOCOL COMPLETED,COMPLETED,"DISPOSITION
EVENT",2013-05-06
CDISCPILOT01,DS,01-713-1106,FINAL LAB VISIT,FINAL LAB VISIT,"OTHER
EVENT",2013-05-06
CDISCPILOT01,DS,01-713-1141,ADVERSE EVENT,"ADVERSE
EVENT","DISPOSITION
EVENT",2013-08-06
CDISCPILOT01,DS,01-713-1141,FINAL LAB VISIT,FINAL LAB VISIT,"OTHER
EVENT",2013-08-06
CDISCPILOT01,DS,01-713-1179,PROTOCOL COMPLETED,COMPLETED,"DISPOSITION
EVENT",2014-02-05
CDISCPILOT01,DS,01-713-1179,FINAL LAB VISIT,FINAL LAB VISIT,"OTHER
EVENT",2014-02-05
CDISCPILOT01,DS,01-713-1209,PROTOCOL COMPLETED,COMPLETED,"DISPOSITION
EVENT",2013-11-22
CDISCPILOT01,DS,01-713-1209,FINAL LAB VISIT,FINAL LAB VISIT,"OTHER
EVENT",2013-11-22
CDISCPILOT01,DS,01-713-1256,PROTOCOL COMPLETED,COMPLETED,"DISPOSITION
EVENT",2013-03-25
CDISCPILOT01,DS,01-713-1256,FINAL LAB VISIT,FINAL LAB VISIT,"OTHER
EVENT",2013-03-25
CDISCPILOT01,DS,01-713-1269,PROTOCOL COMPLETED,COMPLETED,"DISPOSITION
EVENT",2014-07-28
CDISCPILOT01,DS,01-713-1269,FINAL LAB VISIT,FINAL LAB VISIT,"OTHER
EVENT",2014-07-28
CDISCPILOT01,DS,01-713-1448,ADVERSE EVENT,"ADVERSE
EVENT","DISPOSITION
EVENT",2014-05-17
CDISCPILOT01,DS,01-713-1448,FINAL LAB VISIT,FINAL LAB VISIT,"OTHER
EVENT",2014-05-17
CDISCPILOT01,DS,01-713-1448,FINAL RETRIEVAL VISIT,"FINAL
RETRIEVAL
VISIT","OTHER
EVENT",2014-07-27
CDISCPILOT01,DS,01-714-1035,PROTOCOL COMPLETED,COMPLETED,"DISPOSITION
EVENT",2014-10-16
CDISCPILOT01,DS,01-714-1035,FINAL LAB VISIT,FINAL LAB VISIT,"OTHER
EVENT",2014-10-16
CDISCPILOT01,DS,01-714-1068,ADVERSE EVENT,"ADVERSE
EVENT","DISPOSITION
EVENT",2013-10-16
CDISCPILOT01,DS,01-714-1068,FINAL LAB VISIT,FINAL LAB VISIT,"OTHER
EVENT",2013-10-16
CDISCPILOT01,DS,01-714-1195,PROTOCOL COMPLETED,COMPLETED,"DISPOSITION
EVENT",2013-10-23
CDISCPILOT01,DS,01-714-1195,FINAL LAB VISIT,FINAL LAB VISIT,"OTHER
EVENT",2013-10-23
CDISCPILOT01,DS,01-714-1288,PROTOCOL COMPLETED,COMPLETED,"DISPOSITION
EVENT",2014-06-17
CDISCPILOT01,DS,01-714-1288,FINAL LAB VISIT,FINAL LAB VISIT,"OTHER
EVENT",2014-06-17
CDISCPILOT01,DS,01-714-1375,PROTOCOL COMPLETED,COMPLETED,"DISPOSITION
EVENT",2013-09-07
CDISCPILOT01,DS,01-714-1375,FINAL LAB VISIT,FINAL LAB VISIT,"OTHER
EVENT",2013-09-07
CDISCPILOT01,DS,01-714-1425,"SPONSOR DECISION (STUDY OR
PATIENT DISCONTINUED BY THE
SPONSOR)","STUDY
TERMINATED BY
SPONSOR","DISPOSITION
EVENT",2013-08-22
CDISCPILOT01,DS,01-714-1425,FINAL LAB VISIT,FINAL LAB VISIT,"OTHER
EVENT",2013-08-22
CDISCPILOT01,DS,01-715-1085,PROTOCOL COMPLETED,COMPLETED,"DISPOSITION
EVENT",2013-08-18
CDISCPILOT01,DS,01-715-1085,FINAL LAB VISIT,FINAL LAB VISIT,"OTHER
EVENT",2013-08-18
CDISCPILOT01,DS,01-715-1107,ADVERSE EVENT,"ADVERSE
EVENT","DISPOSITION
EVENT",2013-05-13
CDISCPILOT01,DS,01-715-1107,FINAL LAB VISIT,FINAL LAB VISIT,"OTHER
EVENT",2013-08-14
CDISCPILOT01,DS,01-715-1107,FINAL RETRIEVAL VISIT,"FINAL
RETRIEVAL
VISIT","OTHER
EVENT",2013-08-14
CDISCPILOT01,DS,01-715-1134,SCREEN FAILURE,"SCREEN
FAILURE","DISPOSITION
EVENT",2014-04-17
CDISCPILOT01,DS,01-715-1155,"CAREGIVER WITHDREW FROM
STUDY","WITHDRAWAL
BY SUBJECT","DISPOSITION
EVENT",2014-04-26
CDISCPILOT01,DS,01-715-1155,FINAL LAB VISIT,FINAL LAB VISIT,"OTHER
EVENT",2014-01-10
CDISCPILOT01,DS,01-715-1207,PROTOCOL COMPLETED,COMPLETED,"DISPOSITION
EVENT",2013-06-01
CDISCPILOT01,DS,01-715-1207,FINAL LAB VISIT,FINAL LAB VISIT,"OTHER
EVENT",2013-06-01
CDISCPILOT01,DS,01-715-1225,SCREEN FAILURE,"SCREEN
FAILURE","DISPOSITION
EVENT",2013-01-22
CDISCPILOT01,DS,01-715-1319,"TOO MUCH TROUBLE FOR
CAREGIVER","WITHDRAWAL
BY SUBJECT","DISPOSITION
EVENT",2013-03-18
CDISCPILOT01,DS,01-715-1319,FINAL LAB VISIT,FINAL LAB VISIT,"OTHER
EVENT",2013-03-18
CDISCPILOT01,DS,01-715-1321,ADVERSE EVENT,"ADVERSE
EVENT","DISPOSITION
EVENT",2014-04-22
CDISCPILOT01,DS,01-715-1321,FINAL LAB VISIT,FINAL LAB VISIT,"OTHER
EVENT",2014-04-22
CDISCPILOT01,DS,01-715-1333,SCREEN FAILURE,"SCREEN
FAILURE","DISPOSITION
EVENT",2013-06-03
CDISCPILOT01,DS,01-715-1397,PROTOCOL COMPLETED,COMPLETED,"DISPOSITION
EVENT",2013-10-03
CDISCPILOT01,DS,01-715-1397,FINAL LAB VISIT,FINAL LAB VISIT,"OTHER
EVENT",2013-10-03
CDISCPILOT01,DS,01-715-1405,ADVERSE EVENT,"ADVERSE
EVENT","DISPOSITION
EVENT",2013-07-13
CDISCPILOT01,DS,01-715-1405,FINAL LAB VISIT,FINAL LAB VISIT,"OTHER
EVENT",2013-07-13
CDISCPILOT01,DS,01-715-1405,FINAL RETRIEVAL VISIT,"FINAL
RETRIEVAL
VISIT","OTHER
EVENT",2014-01-11
CDISCPILOT01,DS,01-715-1407,SCREEN FAILURE,"SCREEN
FAILURE","DISPOSITION
EVENT",2012-10-24
CDISCPILOT01,DS,01-716-1003,SCREEN FAILURE,"SCREEN
FAILURE","DISPOSITION
EVENT",2014-03-29
CDISCPILOT01,DS,01-716-1024,PROTOCOL COMPLETED,COMPLETED,"DISPOSITION
EVENT",2013-01-20
CDISCPILOT01,DS,01-716-1024,FINAL LAB VISIT,FINAL LAB VISIT,"OTHER
EVENT",2013-01-20
CDISCPILOT01,DS,01-716-1026,PROTOCOL COMPLETED,COMPLETED,"DISPOSITION
EVENT",2014-10-16
CDISCPILOT01,DS,01-716-1026,FINAL LAB VISIT,FINAL LAB VISIT,"OTHER
EVENT",2014-10-16
CDISCPILOT01,DS,01-716-1030,PT KEPT REMOVING PATCHES,"WITHDRAWAL
BY SUBJECT","DISPOSITION
EVENT",2014-01-10
CDISCPILOT01,DS,01-716-1030,FINAL LAB VISIT,FINAL LAB VISIT,"OTHER
EVENT",2014-01-10
CDISCPILOT01,DS,01-716-1044,PROTOCOL COMPLETED,COMPLETED,"DISPOSITION
EVENT",2013-11-03
CDISCPILOT01,DS,01-716-1044,FINAL LAB VISIT,FINAL LAB VISIT,"OTHER
EVENT",2013-11-03
CDISCPILOT01,DS,01-716-1061,SCREEN FAILURE,"SCREEN
FAILURE","DISPOSITION
EVENT",2014-02-14
CDISCPILOT01,DS,01-716-1063,ADVERSE EVENT,"ADVERSE
EVENT","DISPOSITION
EVENT",2013-08-28
CDISCPILOT01,DS,01-716-1063,FINAL LAB VISIT,FINAL LAB VISIT,"OTHER
EVENT",2013-08-28
CDISCPILOT01,DS,01-716-1063,FINAL RETRIEVAL VISIT,"FINAL
RETRIEVAL
VISIT","OTHER
EVENT",2013-11-17
CDISCPILOT01,DS,01-716-1071,ADVERSE EVENT,"ADVERSE
EVENT","DISPOSITION
EVENT",2013-08-01
CDISCPILOT01,DS,01-716-1071,FINAL LAB VISIT,FINAL LAB VISIT,"OTHER
EVENT",2013-08-01
CDISCPILOT01,DS,01-716-1071,FINAL RETRIEVAL VISIT,"FINAL
RETRIEVAL
VISIT","OTHER
EVENT",2013-12-16
CDISCPILOT01,DS,01-716-1094,ADVERSE EVENT,"ADVERSE
EVENT","DISPOSITION
EVENT",2013-01-26
CDISCPILOT01,DS,01-716-1094,FINAL LAB VISIT,FINAL LAB VISIT,"OTHER
EVENT",2013-01-26
CDISCPILOT01,DS,01-716-1094,FINAL RETRIEVAL VISIT,"FINAL
RETRIEVAL
VISIT","OTHER
EVENT",2013-06-22
CDISCPILOT01,DS,01-716-1103,PROTOCOL COMPLETED,COMPLETED,"DISPOSITION
EVENT",2014-09-20
CDISCPILOT01,DS,01-716-1103,FINAL LAB VISIT,FINAL LAB VISIT,"OTHER
EVENT",2014-09-20
CDISCPILOT01,DS,01-716-1108,PROTOCOL COMPLETED,COMPLETED,"DISPOSITION
EVENT",2013-08-10
CDISCPILOT01,DS,01-716-1108,FINAL LAB VISIT,FINAL LAB VISIT,"OTHER
EVENT",2013-08-10
CDISCPILOT01,DS,01-716-1151,ADVERSE EVENT,"ADVERSE
EVENT","DISPOSITION
EVENT",2013-06-07
CDISCPILOT01,DS,01-716-1151,FINAL LAB VISIT,FINAL LAB VISIT,"OTHER
EVENT",2013-06-07
CDISCPILOT01,DS,01-716-1151,FINAL RETRIEVAL VISIT,"FINAL
RETRIEVAL
VISIT","OTHER
EVENT",2013-08-13
CDISCPILOT01,DS,01-716-1157,PROTOCOL COMPLETED,COMPLETED,"DISPOSITION
EVENT",2014-04-05
CDISCPILOT01,DS,01-716-1157,FINAL LAB VISIT,FINAL LAB VISIT,"OTHER
EVENT",2014-04-05
CDISCPILOT01,DS,01-716-1160,PROTOCOL COMPLETED,COMPLETED,"DISPOSITION
EVENT",2013-10-11
CDISCPILOT01,DS,01-716-1160,FINAL LAB VISIT,FINAL LAB VISIT,"OTHER
EVENT",2013-10-11
CDISCPILOT01,DS,01-716-1167,PROTOCOL COMPLETED,COMPLETED,"DISPOSITION
EVENT",2013-04-13
CDISCPILOT01,DS,01-716-1167,FINAL LAB VISIT,FINAL LAB VISIT,"OTHER
EVENT",2013-04-13
CDISCPILOT01,DS,01-716-1177,PROTOCOL COMPLETED,COMPLETED,"DISPOSITION
EVENT",2015-03-05
CDISCPILOT01,DS,01-716-1177,FINAL LAB VISIT,FINAL LAB VISIT,"OTHER
EVENT",2015-03-05
CDISCPILOT01,DS,01-716-1189,ADVERSE EVENT,"ADVERSE
EVENT","DISPOSITION
EVENT",2013-03-03
CDISCPILOT01,DS,01-716-1189,FINAL LAB VISIT,FINAL LAB VISIT,"OTHER
EVENT",2013-03-03
CDISCPILOT01,DS,01-716-1189,FINAL RETRIEVAL VISIT,"FINAL
RETRIEVAL
VISIT","OTHER
EVENT",2013-04-08
CDISCPILOT01,DS,01-716-1229,ADVERSE EVENT,"ADVERSE
EVENT","DISPOSITION
EVENT",2013-04-02
CDISCPILOT01,DS,01-716-1229,FINAL LAB VISIT,FINAL LAB VISIT,"OTHER
EVENT",2013-04-02
CDISCPILOT01,DS,01-716-1244,SCREEN FAILURE,"SCREEN
FAILURE","DISPOSITION
EVENT",2013-08-15
CDISCPILOT01,DS,01-716-1298,ADVERSE EVENT,"ADVERSE
EVENT","DISPOSITION
EVENT",2013-07-06
CDISCPILOT01,DS,01-716-1298,FINAL LAB VISIT,FINAL LAB VISIT,"OTHER
EVENT",2013-07-06
CDISCPILOT01,DS,01-716-1298,FINAL RETRIEVAL VISIT,"FINAL
RETRIEVAL
VISIT","OTHER
EVENT",2013-10-07
CDISCPILOT01,DS,01-716-1305,SCREEN FAILURE,"SCREEN
FAILURE","DISPOSITION
EVENT",2013-08-06
CDISCPILOT01,DS,01-716-1308,PLACED IN NURSING HOME,"WITHDRAWAL
BY SUBJECT","DISPOSITION
EVENT",2013-10-07
CDISCPILOT01,DS,01-716-1308,FINAL LAB VISIT,FINAL LAB VISIT,"OTHER
EVENT",2013-10-07
CDISCPILOT01,DS,01-716-1311,INSTITUTIONALIZED,"WITHDRAWAL
BY SUBJECT","DISPOSITION
EVENT",2014-09-30
CDISCPILOT01,DS,01-716-1311,FINAL LAB VISIT,FINAL LAB VISIT,"OTHER
EVENT",2014-09-30
CDISCPILOT01,DS,01-716-1311,FINAL RETRIEVAL VISIT,"FINAL
RETRIEVAL
VISIT","OTHER
EVENT",2014-11-15
CDISCPILOT01,DS,01-716-1331,SCREEN FAILURE,"SCREEN
FAILURE","DISPOSITION
EVENT",2013-11-25
CDISCPILOT01,DS,01-716-1364,PROTOCOL COMPLETED,COMPLETED,"DISPOSITION
EVENT",2014-01-09
CDISCPILOT01,DS,01-716-1364,FINAL LAB VISIT,FINAL LAB VISIT,"OTHER
EVENT",2014-01-09
CDISCPILOT01,DS,01-716-1373,ADVERSE EVENT,"ADVERSE
EVENT","DISPOSITION
EVENT",2013-02-28
CDISCPILOT01,DS,01-716-1373,FINAL LAB VISIT,FINAL LAB VISIT,"OTHER
EVENT",2013-02-28
CDISCPILOT01,DS,01-716-1418,PROTOCOL COMPLETED,COMPLETED,"DISPOSITION
EVENT",2013-11-20
CDISCPILOT01,DS,01-716-1418,FINAL LAB VISIT,FINAL LAB VISIT,"OTHER
EVENT",2013-11-20
CDISCPILOT01,DS,01-716-1441,PROTOCOL COMPLETED,COMPLETED,"DISPOSITION
EVENT",2014-07-22
CDISCPILOT01,DS,01-716-1441,FINAL LAB VISIT,FINAL LAB VISIT,"OTHER
EVENT",2014-07-22
CDISCPILOT01,DS,01-716-1447,PROTOCOL COMPLETED,COMPLETED,"DISPOSITION
EVENT",2014-06-17
CDISCPILOT01,DS,01-716-1447,FINAL LAB VISIT,FINAL LAB VISIT,"OTHER
EVENT",2014-06-17
CDISCPILOT01,DS,01-717-1004,PROTOCOL COMPLETED,COMPLETED,"DISPOSITION
EVENT",2014-07-16
CDISCPILOT01,DS,01-717-1004,FINAL LAB VISIT,FINAL LAB VISIT,"OTHER
EVENT",2014-07-16
CDISCPILOT01,DS,01-717-1109,PROTOCOL COMPLETED,COMPLETED,"DISPOSITION
EVENT",2014-07-28
CDISCPILOT01,DS,01-717-1109,FINAL LAB VISIT,FINAL LAB VISIT,"OTHER
EVENT",2014-07-28
CDISCPILOT01,DS,01-717-1174,PROTOCOL COMPLETED,COMPLETED,"DISPOSITION
EVENT",2013-07-24
CDISCPILOT01,DS,01-717-1174,FINAL LAB VISIT,FINAL LAB VISIT,"OTHER
EVENT",2013-07-24
CDISCPILOT01,DS,01-717-1201,"LACK OF EFFICACY, PATIENT
CAREGIVER PERCEPTION","LACK OF
EFFICACY","DISPOSITION
EVENT",2014-02-21
CDISCPILOT01,DS,01-717-1201,FINAL LAB VISIT,FINAL LAB VISIT,"OTHER
EVENT",2014-02-21
CDISCPILOT01,DS,01-717-1344,"LACK OF EFFICACY, PATIENT
CAREGIVER PERCEPTION","LACK OF
EFFICACY","DISPOSITION
EVENT",2014-03-14
CDISCPILOT01,DS,01-717-1344,FINAL LAB VISIT,FINAL LAB VISIT,"OTHER
EVENT",2014-03-14
CDISCPILOT01,DS,01-717-1357,"SPONSOR DECISION (STUDY OR
PATIENT DISCONTINUED BY THE
SPONSOR)","STUDY
TERMINATED BY
SPONSOR","DISPOSITION
EVENT",2013-10-20
CDISCPILOT01,DS,01-717-1357,FINAL LAB VISIT,FINAL LAB VISIT,"OTHER
EVENT",2013-10-20
CDISCPILOT01,DS,01-717-1446,PROTOCOL COMPLETED,COMPLETED,"DISPOSITION
EVENT",2014-03-04
CDISCPILOT01,DS,01-717-1446,FINAL LAB VISIT,FINAL LAB VISIT,"OTHER
EVENT",2014-03-17
CDISCPILOT01,DS,01-718-1066,ADVERSE EVENT,"ADVERSE
EVENT","DISPOSITION
EVENT",2013-07-30
CDISCPILOT01,DS,01-718-1066,FINAL LAB VISIT,FINAL LAB VISIT,"OTHER
EVENT",2013-07-30
CDISCPILOT01,DS,01-718-1079,ADVERSE EVENT,"ADVERSE
EVENT","DISPOSITION
EVENT",2012-11-06
CDISCPILOT01,DS,01-718-1079,FINAL LAB VISIT,FINAL LAB VISIT,"OTHER
EVENT",2012-10-31
CDISCPILOT01,DS,01-718-1079,FINAL RETRIEVAL VISIT,"FINAL
RETRIEVAL
VISIT","OTHER
EVENT",2013-03-05
CDISCPILOT01,DS,01-718-1101,"SPONSOR DECISION (STUDY OR
PATIENT DISCONTINUED BY THE
SPONSOR)","STUDY
TERMINATED BY
SPONSOR","DISPOSITION
EVENT",2013-08-02
CDISCPILOT01,DS,01-718-1101,FINAL LAB VISIT,FINAL LAB VISIT,"OTHER
EVENT",2013-08-02
CDISCPILOT01,DS,01-718-1139,PROTOCOL COMPLETED,COMPLETED,"DISPOSITION
EVENT",2013-11-17
CDISCPILOT01,DS,01-718-1139,FINAL LAB VISIT,FINAL LAB VISIT,"OTHER
EVENT",2013-11-17
CDISCPILOT01,DS,01-718-1150,PROTOCOL COMPLETED,COMPLETED,"DISPOSITION
EVENT",2013-07-31
CDISCPILOT01,DS,01-718-1150,FINAL LAB VISIT,FINAL LAB VISIT,"OTHER
EVENT",2013-07-31
CDISCPILOT01,DS,01-718-1170,ADVERSE EVENT,"ADVERSE
EVENT","DISPOSITION
EVENT",2013-11-03
CDISCPILOT01,DS,01-718-1170,FINAL LAB VISIT,FINAL LAB VISIT,"OTHER
EVENT",2013-11-03
CDISCPILOT01,DS,01-718-1170,FINAL RETRIEVAL VISIT,"FINAL
RETRIEVAL
VISIT","OTHER
EVENT",2014-03-15
CDISCPILOT01,DS,01-718-1172,"PATIENT TO BEGIN COURSE OF
ARICEPT","WITHDRAWAL
BY SUBJECT","DISPOSITION
EVENT",2013-11-29
CDISCPILOT01,DS,01-718-1172,FINAL LAB VISIT,FINAL LAB VISIT,"OTHER
EVENT",2013-11-29
CDISCPILOT01,DS,01-718-1172,FINAL RETRIEVAL VISIT,"FINAL
RETRIEVAL
VISIT","OTHER
EVENT",2014-03-21
CDISCPILOT01,DS,01-718-1250,ADVERSE EVENT,"ADVERSE
EVENT","DISPOSITION
EVENT",2014-02-08
CDISCPILOT01,DS,01-718-1250,FINAL LAB VISIT,FINAL LAB VISIT,"OTHER
EVENT",2014-02-08
CDISCPILOT01,DS,01-718-1250,FINAL RETRIEVAL VISIT,"FINAL
RETRIEVAL
VISIT","OTHER
EVENT",2014-03-08
CDISCPILOT01,DS,01-718-1254,PROTOCOL COMPLETED,COMPLETED,"DISPOSITION
EVENT",2014-01-09
CDISCPILOT01,DS,01-718-1254,FINAL LAB VISIT,FINAL LAB VISIT,"OTHER
EVENT",2014-01-09
CDISCPILOT01,DS,01-718-1328,"PATIENT UNABLE TO TOLERATE
DERMAL IRRITATION AT PATCH
SITE","WITHDRAWAL
BY SUBJECT","DISPOSITION
EVENT",2013-05-01
CDISCPILOT01,DS,01-718-1328,FINAL LAB VISIT,FINAL LAB VISIT,"OTHER
EVENT",2013-05-01
CDISCPILOT01,DS,01-718-1328,FINAL RETRIEVAL VISIT,"FINAL
RETRIEVAL
VISIT","OTHER
EVENT",2013-07-24
CDISCPILOT01,DS,01-718-1355,PROTOCOL COMPLETED,COMPLETED,"DISPOSITION
EVENT",2013-08-29
CDISCPILOT01,DS,01-718-1355,FINAL LAB VISIT,FINAL LAB VISIT,"OTHER
EVENT",2013-08-29
CDISCPILOT01,DS,01-718-1371,ADVERSE EVENT,"ADVERSE
EVENT","DISPOSITION
EVENT",2013-08-08
CDISCPILOT01,DS,01-718-1371,FINAL LAB VISIT,FINAL LAB VISIT,"OTHER
EVENT",2013-08-01
CDISCPILOT01,DS,01-718-1427,"LACK OF EFFICACY, PATIENT
CAREGIVER PERCEPTION","LACK OF
EFFICACY","DISPOSITION
EVENT",2013-02-18
CDISCPILOT01,DS,01-718-1427,FINAL LAB VISIT,FINAL LAB VISIT,"OTHER
EVENT",2013-02-18
CDISCPILOT01,DS,01-718-1427,FINAL RETRIEVAL VISIT,"FINAL
RETRIEVAL
VISIT","OTHER
EVENT",2013-06-03
