{2 items
"datasets":[1 item
0:{5 items
"filename":"lb.xpt"
"label":"Laboratory Tests Results"
"domain":"LB"
"variables":[14 items
0:{4 items
"name":"DOMAIN"
"label":"Domain Abbreviation"
"type":"Char"
"length":2
}
1:{4 items
"name":"USUBJID"
"label":"Unique Subject Identifier"
"type":"Char"
"length":14
}
2:{4 items
"name":"LBTESTCD"
"label":"Lab Test or Examination Short Name"
"type":"Char"
"length":8
}
3:{4 items
"name":"LBTEST"
"label":"Lab Test or Examination Name"
"type":"Char"
"length":25
}
4:{4 items
"name":"LBCAT"
"label":"Category for Lab Test"
"type":"Char"
"length":18
}
5:{4 items
"name":"LBORRES"
"label":"Result or Finding in Original Units"
"type":"Char"
"length":6
}
6:{4 items
"name":"LBORRESU"
"label":"Original Units"
"type":"Char"
"length":8
}
7:{4 items
"name":"LBORNRLO"
"label":"Reference Range Lower Limit in Orig Unit"
"type":"Char"
"length":1
}
8:{4 items
"name":"LBORNRHI"
"label":"Reference Range Upper Limit in Orig Unit"
"type":"Char"
"length":1
}
9:{4 items
"name":"LBSTRESC"
"label":"Character Result/Finding in Std Format"
"type":"Char"
"length":6
}
10:{4 items
"name":"LBSTRESN"
"label":"Numeric Result/Finding in Standard Units"
"type":"Num"
"length":8
}
11:{4 items
"name":"LBSTRESU"
"label":"Standard Units"
"type":"Char"
"length":8
}
12:{4 items
"name":"LBSTNRLO"
"label":"Reference Range Lower Limit-Std Units"
"type":"Num"
"length":8
}
13:{4 items
"name":"LBSTNRHI"
"label":"Reference Range Upper Limit-Std Units"
"type":"Num"
"length":8
}
]
"records":{14 items
"DOMAIN":[3 items
0:"LB"
1:"LB"
2:"LB"
]
"USUBJID":[3 items
0:"CDISC-TEST-001"
1:"CDISC-TEST-001"
2:"CDISC-TEST-002"
]
"LBTESTCD":[3 items
0:"ALB"
1:"HBA1CHGB"
2:"HBA1CHGB"
]
"LBTEST":[3 items
0:"Albumin"
1:"Hemoglobin A1C/Hemoglobin"
2:"Hemoglobin A1C/Hemoglobin"
]
"LBCAT":[3 items
0:"BIOCHEMISTRY"
1:"GLUCOSE METABOLISM"
2:"GLUCOSE METABOLISM"
]
"LBORRES":[3 items
0:"24.6"
1:"35.1"
2:""
]
"LBORRESU":[3 items
0:"g/dL"
1:"mmol/mol"
2:"mmol/mol"
]
"LBORNRLO":[3 items
0:"1"
1:"2"
2:""
]
"LBORNRHI":[3 items
0:"50"
1:"48"
2:""
]
"LBSTRESC":[3 items
0:"4.46"
1:"77.87"
2:""
]
"LBSTRESN":[3 items
0:4.46
1:77.87
2:NULL
]
"LBSTRESU":[3 items
0:"g/dL"
1:"mmol/mol"
2:"mmol/mol"
]
"LBSTNRLO":[3 items
0:1
1:2
2:NULL
]
"LBSTNRHI":[3 items
0:50
1:48
2:NULL
]
}
}
]
"codelists":[]0 items
}