STUDYID,DOMAIN,RDOMAIN,USUBJID,COSEQ,IDVAR,IDVARVAL,COREF,COVAL,COVAL1,COVAL2,COEVAL,VISITNUM,CODTC,CODY
1234,CO,,AB-99,1,,,,Patient was then transferred to tertiary care centre since his condition continued to deteriorate ,,,PRINCIPAL INVESTIGATOR,,2019-11-08,134
1234,CO,PE,XX-11,2,,,VISIT 7,Visit was delayed by a day due to strike at hospital,,,PRINCIPAL INVESTIGATOR,,2020-01-14,201
1234,CO,AE,YY-20,3,AESEQ,7,PAGE 650,On 01JAN2020 the woman and her son were bitten by a stray dog while walking nearby to their house. The woman sustained bites on her thigh while her son had bites on his left foot. Dog was killed and ,buried without laboratory investigation for rabies. Women washed the wounds of her child shortly after the incident and then took him to the healthcare unit where he received a rabies vaccine and,completed a full course of standard vaccines.,PRINCIPAL INVESTIGATOR,,,
1234,CO,EX,ZZ-23,4,EXGRPID,COMBO1,PAGE 320-355,Medicine was administered under supervision of Sub investigator as PI was on leave,,,PRINCIPAL INVESTIGATOR,,,
1234,CO,VS,AB-99,5,VSGRPID,VS2,,Vital signs were recorded by casualty physician,,,PRINCIPAL INVESTIGATOR,,,
1234,CO,SV,XX-11,6,VISITNUM,4,,Visit was delayed by a day due to hospital holiday,,,PRINCIPAL INVESTIGATOR,,,
1234,CO,,YY-20,7,,,VISIT 4,Visit was delayed by a day due to hospital holiday,,,PRINCIPAL INVESTIGATOR,,,
1234,CO,,ZZ-23,8,,,,Visit was delayed by a day due to hospital holiday,,,PRINCIPAL INVESTIGATOR,4,,
