{
  "CORE-000001": {
    "Authorities": [
      {
        "Organization": "CDISC",
        "Standards": [
          {
            "Name": "SDTMIG",
            "References": [
              {
                "Citations": [
                  {
                    "Cited_Guidance": "The intent of the domain model is to collect responses to only those criteria that the subject did not meet, and not the responses to all criteria.",
                    "Document": "IG v3.4",
                    "Item": "Assumption 1",
                    "Section": "6.3.4"
                  }
                ],
                "Origin": "SDTM and SDTMIG Conformance Rules",
                "Rule_Identifier": {
                  "Id": "CG0176",
                  "Version": "1"
                },
                "Version": "2.0"
              }
            ],
            "Version": "3.4"
          },
          {
            "Name": "SDTMIG",
            "References": [
              {
                "Citations": [
                  {
                    "Cited_Guidance": "The intent of the domain model is to collect response to only those criteria that the subject did not meet, and not the responses to all criteria.",
                    "Document": "IG v3.2",
                    "Item": "Assumption 2",
                    "Section": "6.3"
                  }
                ],
                "Origin": "SDTM and SDTMIG Conformance Rules",
                "Rule_Identifier": {
                  "Id": "CG0176",
                  "Version": "1"
                },
                "Version": "2.0"
              }
            ],
            "Version": "3.2"
          },
          {
            "Name": "SDTMIG",
            "References": [
              {
                "Citations": [
                  {
                    "Cited_Guidance": "The intent of the domain model is to collect response to only those criteria that the subject did not meet, and not the responses to all criteria.",
                    "Document": "IG v3.3",
                    "Item": "Assumption 1",
                    "Section": "6.3.4"
                  }
                ],
                "Origin": "SDTM and SDTMIG Conformance Rules",
                "Rule_Identifier": {
                  "Id": "CG0176",
                  "Version": "1"
                },
                "Version": "2.0"
              }
            ],
            "Version": "3.3"
          },
          {
            "Name": "TIG",
            "References": [
              {
                "Citations": [
                  {
                    "Cited_Guidance": "The intent of the domain model is to collect responses to only those criteria that the subject did not meet, and not the responses to all criteria.",
                    "Document": "TIG 1.0",
                    "Item": "Assumption 1",
                    "Section": "2.8.10.13"
                  }
                ],
                "Origin": "TIG Conformance Rules",
                "Rule_Identifier": {
                  "Id": "TIG0405",
                  "Version": "1"
                },
                "Version": "1.0"
              }
            ],
            "Substandard": "SDTM",
            "Version": "1.0"
          }
        ]
      }
    ],
    "Check": {
      "all": [
        {
          "name": "IECAT",
          "operator": "equal_to",
          "value": "INCLUSION",
          "value_is_literal": true
        },
        {
          "name": "IEORRES",
          "operator": "not_equal_to",
          "value": "N",
          "value_is_literal": true
        }
      ]
    },
    "Core": {
      "Id": "CORE-000001",
      "Status": "Published",
      "Version": "1"
    },
    "Description": "Raise an error when IECAT equals 'INCLUSION' but IEORRES does not equal 'N'.",
    "Executability": "Fully Executable",
    "Outcome": {
      "Message": "IECAT equals 'INCLUSION', but IEORRES is not equal to 'N'.",
      "Output_Variables": [
        "IETESTCD",
        "IECAT",
        "IEORRES"
      ]
    },
    "Rule_Type": "Record Data",
    "Scope": {
      "Classes": {
        "Include": [
          "FINDINGS"
        ]
      },
      "Domains": {
        "Include": [
          "IE"
        ]
      },
      "Use_Case": "INDH"
    },
    "Sensitivity": "Record"
  },
  "CORE-000002": {
    "Authorities": [
      {
        "Organization": "CDISC",
        "Standards": [
          {
            "Name": "SDTMIG",
            "References": [
              {
                "Citations": [
                  {
                    "Cited_Guidance": "Note that SESTDTC is required, although --STDTC is not required in any other subject-level dataset. The purpose of the dataset is to record the Elements a subject actually passed through. We assume that if it is known that a subject passed through a particular Element, then there must be some information on when it started, even if that information is imprecise. Thus, SESTDTC may not be null, although some records may not have all the components (e.g., year, month, day, hour, minute) of the date/time value collected.",
                    "Document": "IG v3.4",
                    "Item": "Assumption 9",
                    "Section": "5.3"
                  }
                ],
                "Origin": "SDTM and SDTMIG Conformance Rules",
                "Rule_Identifier": {
                  "Id": "CG0208",
                  "Version": "3"
                },
                "Version": "2.0"
              }
            ],
            "Version": "3.4"
          },
          {
            "Name": "SDTMIG",
            "References": [
              {
                "Citations": [
                  {
                    "Cited_Guidance": "Note that SESTDTC is required, although --STDTC is not required in any other subject-level dataset. The purpose of the dataset is to record the Elements a subject actually passed through. We assume that if it is known that a subject passed through a particular Element, then there must be some information on when it started, even if that information is imprecise. Thus, SESTDTC may not be null, although some records may not have all the components (e.g., year, month, day, hour, minute) of the date/time value collected.",
                    "Document": "IG v3.2",
                    "Item": "Assumption 11",
                    "Section": "5 SE"
                  }
                ],
                "Origin": "SDTM and SDTMIG Conformance Rules",
                "Rule_Identifier": {
                  "Id": "CG0208",
                  "Version": "3"
                },
                "Version": "2.0"
              }
            ],
            "Version": "3.2"
          },
          {
            "Name": "SDTMIG",
            "References": [
              {
                "Citations": [
                  {
                    "Cited_Guidance": "Note that SESTDTC is required, although --STDTC is not required in any other subject-level dataset. The purpose of the dataset is to record the Elements a subject actually passed through. We assume that if it is known that a subject passed through a particular Element, then there must be some information on when it started, even if that information is imprecise. Thus, SESTDTC may not be null, although some records may not have all the components (e.g., year, month, day, hour, minute) of the date/time value collected.",
                    "Document": "IG v3.3",
                    "Item": "Assumption 9",
                    "Section": "5.3"
                  }
                ],
                "Origin": "SDTM and SDTMIG Conformance Rules",
                "Rule_Identifier": {
                  "Id": "CG0208",
                  "Version": "3"
                },
                "Version": "2.0"
              }
            ],
            "Version": "3.3"
          }
        ]
      }
    ],
    "Check": {
      "all": [
        {
          "name": "SESTDTC",
          "operator": "empty"
        }
      ]
    },
    "Core": {
      "Id": "CORE-000002",
      "Status": "Published",
      "Version": "1"
    },
    "Description": "Raise an error when SESTDTC is not populated.",
    "Executability": "Fully Executable",
    "Outcome": {
      "Message": "SESTDTC is not populated.",
      "Output_Variables": [
        "SESTDTC"
      ]
    },
    "Rule_Type": "Record Data",
    "Scope": {
      "Classes": {
        "Include": [
          "SPECIAL PURPOSE"
        ]
      },
      "Domains": {
        "Include": [
          "SE"
        ]
      }
    },
    "Sensitivity": "Record"
  },
  "CORE-000003": {
    "Authorities": [
      {
        "Organization": "CDISC",
        "Standards": [
          {
            "Name": "SDTMIG",
            "References": [
              {
                "Citations": [
                  {
                    "Cited_Guidance": "The TR domain does not include anatomical location information on each measurement/assessment record, because this would be a duplication of information already represented in TU. The multi-domain approach to representing oncology assessment data was developed largely to reduce duplication of stored information.",
                    "Document": "IG v3.4",
                    "Item": "TR - Description/Overview",
                    "Section": "6.3.12.2"
                  }
                ],
                "Origin": "SDTM and SDTMIG Conformance Rules",
                "Rule_Identifier": {
                  "Id": "CG0299",
                  "Version": "1"
                },
                "Version": "2.0"
              }
            ],
            "Version": "3.4"
          },
          {
            "Name": "SDTMIG",
            "References": [
              {
                "Citations": [
                  {
                    "Cited_Guidance": "The TR domain does not include anatomical location information on each measurement record because this would be a duplication of information already represented in TU. This duplication of data was a deciding factor in multi-domain approach to representing this data.",
                    "Document": "IG v3.2",
                    "Item": "Specification",
                    "Section": "6.3"
                  }
                ],
                "Origin": "SDTM and SDTMIG Conformance Rules",
                "Rule_Identifier": {
                  "Id": "CG0299",
                  "Version": "1"
                },
                "Version": "2.0"
              }
            ],
            "Version": "3.2"
          },
          {
            "Name": "SDTMIG",
            "References": [
              {
                "Citations": [
                  {
                    "Cited_Guidance": "The TR domain does not include anatomical location information on each measurement record because this would be a duplication of information already represented in TU. This duplication of data was a deciding factor in multi-domain approach to representing this data.",
                    "Document": "IG v3.3",
                    "Item": "Specification",
                    "Section": "6.3.16.2"
                  }
                ],
                "Origin": "SDTM and SDTMIG Conformance Rules",
                "Rule_Identifier": {
                  "Id": "CG0299",
                  "Version": "1"
                },
                "Version": "2.0"
              }
            ],
            "Version": "3.3"
          }
        ]
      }
    ],
    "Check": {
      "all": [
        {
          "name": "TRLOC",
          "operator": "exists"
        }
      ]
    },
    "Core": {
      "Id": "CORE-000003",
      "Status": "Published",
      "Version": "1"
    },
    "Description": "Raise an error when TRLOC is present in TR dataset.",
    "Executability": "Fully Executable",
    "Outcome": {
      "Message": "TRLOC should not be present in TR dataset.",
      "Output_Variables": [
        "TRLOC"
      ]
    },
    "Rule_Type": "Record Data",
    "Scope": {
      "Classes": {
        "Include": [
          "FINDINGS"
        ]
      },
      "Domains": {
        "Include": [
          "TR"
        ]
      }
    },
    "Sensitivity": "Dataset"
  },
  "CORE-000004": {
    "Authorities": [
      {
        "Organization": "CDISC",
        "Standards": [
          {
            "Name": "SDTMIG",
            "References": [
              {
                "Citations": [
                  {
                    "Cited_Guidance": "For example, if 0 tablets are taken within a timeframe or 0 mL is infused at a visit, then  ECOCCUR = 'N' is the standard representation of the collected doses not taken, not given, or missed. Dose amount variables (e.g., ECDOSE, ECDOSTXT) must not be set to zero (0) as  an alternative method for indicating doses not taken, not given, or missed.",
                    "Document": "IG v3.4",
                    "Item": "Assumption 4a",
                    "Section": "6.1.3.2"
                  },
                  {
                    "Cited_Guidance": "Qualifiers that indicate dose amount (e.g., ECDOSE, ECDOSTXT) may be populated with positive (non-zero) values in cases where the sponsor feels it is necessary and/or appropriate to represent specific dose amounts not taken, not given, or missed.",
                    "Document": "IG v3.4",
                    "Item": "Assumption 4b",
                    "Section": "6.1.3.2"
                  }
                ],
                "Origin": "SDTM and SDTMIG Conformance Rules",
                "Rule_Identifier": {
                  "Id": "CG0101",
                  "Version": "2"
                },
                "Version": "2.0"
              }
            ],
            "Version": "3.4"
          },
          {
            "Name": "SDTMIG",
            "References": [
              {
                "Citations": [
                  {
                    "Cited_Guidance": "For example, if 0 tablets are taken within a timeframe or 0 mL infused at a visit, then ECOCCUR = 'N' is the standard representation of the collected doses not taken, not given, or missed. Dose amount variables (e.g., ECDOSE, ECDOSTXT) must not be set to zero (0) as an alternative method for indicating doses not taken, not given, or missed.",
                    "Document": "IG v3.2",
                    "Item": "Assumption 4a",
                    "Section": "6.1"
                  },
                  {
                    "Cited_Guidance": "Qualifiers that indicate dose amount (e.g., ECDOSE, ECDOSTXT) may be populated with positive (non-zero) values in cases where the sponsor feels it is necessary and/or appropriate to represent specific dose amounts not taken, not given, or missed.",
                    "Document": "IG v3.2",
                    "Item": "Assumption 4b",
                    "Section": "6.1"
                  }
                ],
                "Origin": "SDTM and SDTMIG Conformance Rules",
                "Rule_Identifier": {
                  "Id": "CG0101",
                  "Version": "2"
                },
                "Version": "2.0"
              }
            ],
            "Version": "3.2"
          },
          {
            "Name": "SDTMIG",
            "References": [
              {
                "Citations": [
                  {
                    "Cited_Guidance": "For example, if 0 tablets are taken within a timeframe or 0 mL infused at a visit, then ECOCCUR = 'N' is the standard representation of the collected doses not taken, not given, or missed. Dose amount variables (e.g., ECDOSE, ECDOSTXT) must not be set to zero (0) as an alternative method for indicating doses not taken, not given, or missed.",
                    "Document": "IG v3.3",
                    "Item": "Assumption 4a",
                    "Section": "6.1.3.2"
                  },
                  {
                    "Cited_Guidance": "Qualifiers that indicate dose amount (e.g., ECDOSE, ECDOSTXT) may be populated with positive (non-zero) values in cases where the sponsor feels it is necessary and/or appropriate to represent specific dose amounts not taken, not given, or missed.",
                    "Document": "IG v3.3",
                    "Item": "Assumption 4b",
                    "Section": "6.1.3.2"
                  }
                ],
                "Origin": "SDTM and SDTMIG Conformance Rules",
                "Rule_Identifier": {
                  "Id": "CG0101",
                  "Version": "2"
                },
                "Version": "2.0"
              }
            ],
            "Version": "3.3"
          },
          {
            "Name": "TIG",
            "References": [
              {
                "Citations": [
                  {
                    "Cited_Guidance": "For example, if 0 tablets are taken within a timeframe or 0 mL is  infused at a visit, then ECOCCUR = ''N'' is the standard representation of the collected doses not taken, not given, or missed. Dose amount variables (e.g., ECDOSE, ECDOSTXT) must not be set to zero (0) as an alternative method for indicating doses not taken, not given, or missed.",
                    "Document": "TIG 1.0",
                    "Item": "Assumption 4a",
                    "Section": "2.8.10.11"
                  },
                  {
                    "Cited_Guidance": "Qualifiers that indicate dose amount (e.g., ECDOSE, ECDOSTXT) may be populated with positive (non-zero) values in cases where the sponsor feels it is necessary and/or appropriate to represent specific dose amounts not taken, not given, or missed.",
                    "Document": "TIG 1.0",
                    "Item": "Assumption 4b",
                    "Section": "2.8.10.11"
                  }
                ],
                "Origin": "TIG Conformance Rules",
                "Rule_Identifier": {
                  "Id": "TIG0366",
                  "Version": "1"
                },
                "Version": "1.0"
              }
            ],
            "Substandard": "SDTM",
            "Version": "1.0"
          }
        ]
      }
    ],
    "Check": {
      "all": [
        {
          "name": "ECOCCUR",
          "operator": "equal_to",
          "value": "N",
          "value_is_literal": true
        },
        {
          "name": "ECDOSE",
          "operator": "less_than_or_equal_to",
          "value": 0
        },
        {
          "name": "ECDOSE",
          "operator": "non_empty"
        }
      ]
    },
    "Core": {
      "Id": "CORE-000004",
      "Status": "Published",
      "Version": "1"
    },
    "Description": "Raise an error when ECOCCUR is equal to 'N', but ECDOSE is populated and less than or equal to 0.",
    "Executability": "Fully Executable",
    "Outcome": {
      "Message": "ECOCCUR is equal to 'N', but ECDOSE is populated and less than or equal to 0.",
      "Output_Variables": [
        "ECTRT",
        "ECDOSE",
        "ECOCCUR"
      ]
    },
    "Rule_Type": "Record Data",
    "Scope": {
      "Classes": {
        "Include": [
          "INTERVENTIONS"
        ]
      },
      "Domains": {
        "Include": [
          "EC"
        ]
      },
      "Use_Case": "INDH"
    },
    "Sensitivity": "Record"
  },
  "CORE-000005": {
    "Authorities": [
      {
        "Organization": "CDISC",
        "Standards": [
          {
            "Name": "SDTMIG",
            "References": [
              {
                "Citations": [
                  {
                    "Cited_Guidance": "Doses of placebo should be represented by EXTRT = \"PLACEBO\" and EXDOSE = \"0\" (indicating 0 mg of active ingredient was taken or administered).",
                    "Document": "IG v3.4",
                    "Item": "Assumption 2b",
                    "Section": "6.1.3.1"
                  }
                ],
                "Origin": "SDTM and SDTMIG Conformance Rules",
                "Rule_Identifier": {
                  "Id": "CG0102",
                  "Version": "1"
                },
                "Version": "2.0"
              }
            ],
            "Version": "3.4"
          },
          {
            "Name": "SDTMIG",
            "References": [
              {
                "Citations": [
                  {
                    "Cited_Guidance": "Doses of placebo should be represented by EXTRT = 'PLACEBO' and EXDOSE = 0 (indicating 0 mg of active ingredient was taken or administered).",
                    "Document": "IG v3.2",
                    "Item": "Assumption 2b",
                    "Section": "6.1"
                  }
                ],
                "Origin": "SDTM and SDTMIG Conformance Rules",
                "Rule_Identifier": {
                  "Id": "CG0102",
                  "Version": "1"
                },
                "Version": "2.0"
              }
            ],
            "Version": "3.2"
          },
          {
            "Name": "SDTMIG",
            "References": [
              {
                "Citations": [
                  {
                    "Cited_Guidance": "Doses of placebo should be represented by EXTRT = 'PLACEBO' and EXDOSE = 0 (indicating 0 mg of active ingredient was taken or administered).",
                    "Document": "IG v3.3",
                    "Item": "Assumption 2b",
                    "Section": "6.1.3.1"
                  }
                ],
                "Origin": "SDTM and SDTMIG Conformance Rules",
                "Rule_Identifier": {
                  "Id": "CG0102",
                  "Version": "1"
                },
                "Version": "2.0"
              }
            ],
            "Version": "3.3"
          }
        ]
      }
    ],
    "Check": {
      "all": [
        {
          "name": "EXTRT",
          "operator": "equal_to",
          "value": "PLACEBO",
          "value_is_literal": true
        },
        {
          "name": "EXDOSE",
          "operator": "not_equal_to",
          "value": 0
        }
      ]
    },
    "Core": {
      "Id": "CORE-000005",
      "Status": "Published",
      "Version": "1"
    },
    "Description": "Raise an error when EXTRT = PLACEBO, but EXDOSE is not equal to 0.",
    "Executability": "Fully Executable",
    "Outcome": {
      "Message": "EXDOSE should be 0 when EXTRT = PLACEBO.",
      "Output_Variables": [
        "EXTRT",
        "EXDOSE"
      ]
    },
    "Rule_Type": "Record Data",
    "Scope": {
      "Classes": {
        "Include": [
          "INTERVENTIONS"
        ]
      },
      "Domains": {
        "Include": [
          "EX"
        ]
      }
    },
    "Sensitivity": "Record"
  },
  "CORE-000006": {
    "Authorities": [
      {
        "Organization": "CDISC",
        "Standards": [
          {
            "Name": "SDTMIG",
            "References": [
              {
                "Citations": [
                  {
                    "Cited_Guidance": "Should be \"Y\" or null.",
                    "Document": "Model v2.0",
                    "Item": "DTHFL",
                    "Section": "Demographics"
                  }
                ],
                "Origin": "SDTM and SDTMIG Conformance Rules",
                "Rule_Identifier": {
                  "Id": "CG0131",
                  "Version": "1"
                },
                "Version": "2.0"
              }
            ],
            "Version": "3.4"
          },
          {
            "Name": "SDTMIG",
            "References": [
              {
                "Citations": [
                  {
                    "Cited_Guidance": "Should be Y or null.",
                    "Document": "Model v1.4",
                    "Section": "2.2.6"
                  }
                ],
                "Origin": "SDTM and SDTMIG Conformance Rules",
                "Rule_Identifier": {
                  "Id": "CG0131",
                  "Version": "1"
                },
                "Version": "2.0"
              }
            ],
            "Version": "3.2"
          },
          {
            "Name": "SDTMIG",
            "References": [
              {
                "Citations": [
                  {
                    "Cited_Guidance": " Should be \"Y\" or null.",
                    "Document": "Model v1.7",
                    "Item": "DTHFL Description",
                    "Section": "Table 2.2.6"
                  }
                ],
                "Origin": "SDTM and SDTMIG Conformance Rules",
                "Rule_Identifier": {
                  "Id": "CG0131",
                  "Version": "1"
                },
                "Version": "2.0"
              }
            ],
            "Version": "3.3"
          },
          {
            "Name": "TIG",
            "References": [
              {
                "Citations": [
                  {
                    "Cited_Guidance": " Should be \"Y\" or null.",
                    "Document": "SDTM v2.1",
                    "Item": "DTHFL",
                    "Section": "Section 3.2.1 Demographics"
                  }
                ],
                "Origin": "TIG Conformance Rules",
                "Rule_Identifier": {
                  "Id": "TIG0381",
                  "Version": "1"
                },
                "Version": "1.0"
              }
            ],
            "Substandard": "SDTM",
            "Version": "1.0"
          }
        ]
      }
    ],
    "Check": {
      "all": [
        {
          "name": "DTHFL",
          "operator": "not_equal_to",
          "value": "Y",
          "value_is_literal": true
        },
        {
          "name": "DTHFL",
          "operator": "non_empty"
        }
      ]
    },
    "Core": {
      "Id": "CORE-000006",
      "Status": "Published",
      "Version": "1"
    },
    "Description": "Raise an error when DTHFL ^= 'Y' or not empty.",
    "Executability": "Fully Executable",
    "Outcome": {
      "Message": "DTHFL is not equal to 'Y' or empty.",
      "Output_Variables": [
        "DTHFL"
      ]
    },
    "Rule_Type": "Record Data",
    "Scope": {
      "Classes": {
        "Include": [
          "SPECIAL PURPOSE"
        ]
      },
      "Domains": {
        "Include": [
          "DM"
        ]
      },
      "Use_Case": "INDH"
    },
    "Sensitivity": "Record"
  },
  "CORE-000007": {
    "Authorities": [
      {
        "Organization": "CDISC",
        "Standards": [
          {
            "Name": "SDTMIG",
            "References": [
              {
                "Citations": [
                  {
                    "Cited_Guidance": "DTHDTC[The date or date and time of death, represented in a standardized character format.]|DTHFL[An indication that the subject died.]",
                    "Document": "Model v2.0",
                    "Item": "DTHDTC|DTHFL",
                    "Section": "Demographics"
                  }
                ],
                "Origin": "SDTM and SDTMIG Conformance Rules",
                "Rule_Identifier": {
                  "Id": "CG0435",
                  "Version": "1"
                },
                "Version": "2.0"
              }
            ],
            "Version": "3.4"
          },
          {
            "Name": "SDTMIG",
            "References": [
              {
                "Citations": [
                  {
                    "Cited_Guidance": "A value of 'Y' indicates the subject died. Should be Y or null. Should be populated even when the death date is unknown.",
                    "Document": "Model v1.4",
                    "Section": "2.2.6"
                  }
                ],
                "Origin": "SDTM and SDTMIG Conformance Rules",
                "Rule_Identifier": {
                  "Id": "CG0435",
                  "Version": "1"
                },
                "Version": "2.0"
              }
            ],
            "Version": "3.2"
          },
          {
            "Name": "SDTMIG",
            "References": [
              {
                "Citations": [
                  {
                    "Cited_Guidance": "A value of 'Y' indicates the subject died. Should be 'Y' or null. Should be populated even when the death date is unknown.",
                    "Document": "Model v1.7",
                    "Section": "Table 2.2.6.1"
                  }
                ],
                "Origin": "SDTM and SDTMIG Conformance Rules",
                "Rule_Identifier": {
                  "Id": "CG0435",
                  "Version": "1"
                },
                "Version": "2.0"
              }
            ],
            "Version": "3.3"
          },
          {
            "Name": "TIG",
            "References": [
              {
                "Citations": [
                  {
                    "Cited_Guidance": "DTHDTC[The date or date and time of death, represented in a standardized character format.]|DTHFL[An indication that the subject died.]",
                    "Document": "SDTM v2.1",
                    "Item": "DTHDTC|DTHFL",
                    "Section": "3.2.1 Demographics"
                  }
                ],
                "Origin": "TIG Conformance Rules",
                "Rule_Identifier": {
                  "Id": "TIG0587",
                  "Version": "1"
                },
                "Version": "1.0"
              }
            ],
            "Substandard": "SDTM",
            "Version": "1.0"
          }
        ]
      },
      {
        "Organization": "FDA",
        "Standards": [
          {
            "Name": "SDTMIG",
            "References": [
              {
                "Citations": [
                  {
                    "Cited_Guidance": "All death information should be populated for subjects that died during the study including any post treatment follow-up.",
                    "Document": "FDA",
                    "Section": "FDAB006"
                  }
                ],
                "Origin": "FDA Business Rules",
                "Rule_Identifier": {
                  "Id": "FB0606",
                  "Version": "1"
                },
                "Version": "1.5"
              }
            ],
            "Version": "3.2"
          },
          {
            "Name": "SDTMIG",
            "References": [
              {
                "Citations": [
                  {
                    "Cited_Guidance": "All death information should be populated for subjects that died during the study including any post treatment follow-up.",
                    "Document": "FDA",
                    "Section": "FDAB006"
                  }
                ],
                "Origin": "FDA Business Rules",
                "Rule_Identifier": {
                  "Id": "FB0606",
                  "Version": "1"
                },
                "Version": "1.5"
              }
            ],
            "Version": "3.3"
          },
          {
            "Name": "SDTMIG",
            "References": [
              {
                "Citations": [
                  {
                    "Cited_Guidance": "All death information should be populated for subjects that died during the study including any post treatment follow-up.",
                    "Document": "FDA",
                    "Section": "FDAB006"
                  }
                ],
                "Origin": "FDA Business Rules",
                "Rule_Identifier": {
                  "Id": "FB0606",
                  "Version": "1"
                },
                "Version": "1.5"
              }
            ],
            "Version": "3.4"
          }
        ]
      }
    ],
    "Check": {
      "all": [
        {
          "name": "DTHDTC",
          "operator": "non_empty"
        },
        {
          "name": "DTHFL",
          "operator": "not_equal_to",
          "value": "Y",
          "value_is_literal": true
        }
      ]
    },
    "Core": {
      "Id": "CORE-000007",
      "Status": "Published",
      "Version": "1"
    },
    "Description": "Raise an error when DTHDTC is populated but DTHFL is not equal to 'Y'.",
    "Executability": "Fully Executable",
    "Outcome": {
      "Message": "DTHFL must be equal to 'Y' when DTHDTC is populated.",
      "Output_Variables": [
        "DTHDTC",
        "DTHFL"
      ]
    },
    "Rule_Type": "Record Data",
    "Scope": {
      "Classes": {
        "Include": [
          "SPECIAL PURPOSE"
        ]
      },
      "Domains": {
        "Include": [
          "DM"
        ]
      },
      "Use_Case": "INDH"
    },
    "Sensitivity": "Record"
  },
  "CORE-000008": {
    "Authorities": [
      {
        "Organization": "CDISC",
        "Standards": [
          {
            "Name": "SDTMIG",
            "References": [
              {
                "Citations": [
                  {
                    "Cited_Guidance": "For example, if a subject's Survival Status is \"DEAD\", the date of death must be stored in DM and within a final disposition record in DS.",
                    "Document": "IG v3.2",
                    "Item": "Assumption 2",
                    "Section": "6.3"
                  }
                ],
                "Origin": "SDTM and SDTMIG Conformance Rules",
                "Rule_Identifier": {
                  "Id": "CG0132",
                  "Version": "1"
                },
                "Version": "2.0"
              }
            ],
            "Version": "3.2"
          },
          {
            "Name": "SDTMIG",
            "References": [
              {
                "Citations": [
                  {
                    "Cited_Guidance": "For example, if a subject's Survival Status is \"DEAD\", the date of death must be stored in DM and within a final disposition record in DS.",
                    "Document": "IG v3.3",
                    "Item": "Assumption 1",
                    "Section": "6.3.15"
                  }
                ],
                "Origin": "SDTM and SDTMIG Conformance Rules",
                "Rule_Identifier": {
                  "Id": "CG0132",
                  "Version": "1"
                },
                "Version": "2.0"
              }
            ],
            "Version": "3.3"
          },
          {
            "Name": "SDTMIG",
            "References": [
              {
                "Citations": [
                  {
                    "Cited_Guidance": "4. If the subject's survival status is \"dead\", the Demographics (DM) variables DTHDTC and DTHFL must be appropriately populated.",
                    "Document": "IG v3.4",
                    "Item": "Accounting for Long-Term Follow-up",
                    "Section": "4.5.8"
                  },
                  {
                    "Cited_Guidance": "For example, if a subject's survival status is \"DEAD\", the date of death must be stored in DM and within a final disposition record in DS.",
                    "Document": "IG v3.4",
                    "Item": "Assumption 1",
                    "Section": "6.3.11"
                  }
                ],
                "Origin": "SDTM and SDTMIG Conformance Rules",
                "Rule_Identifier": {
                  "Id": "CG0132",
                  "Version": "1"
                },
                "Version": "2.0"
              }
            ],
            "Version": "3.4"
          }
        ]
      },
      {
        "Organization": "FDA",
        "Standards": [
          {
            "Name": "SDTMIG",
            "References": [
              {
                "Citations": [
                  {
                    "Cited_Guidance": "All death information should be populated for subjects that died during the study including any post treatment follow-up.",
                    "Document": "FDA",
                    "Section": "FDAB006"
                  }
                ],
                "Origin": "FDA Business Rules",
                "Rule_Identifier": {
                  "Id": "FB0601",
                  "Version": "1"
                },
                "Version": "1.5"
              }
            ],
            "Version": "3.2"
          },
          {
            "Name": "SDTMIG",
            "References": [
              {
                "Citations": [
                  {
                    "Cited_Guidance": "All death information should be populated for subjects that died during the study including any post treatment follow-up.",
                    "Document": "FDA",
                    "Section": "FDAB006"
                  }
                ],
                "Origin": "FDA Business Rules",
                "Rule_Identifier": {
                  "Id": "FB0601",
                  "Version": "1"
                },
                "Version": "1.5"
              }
            ],
            "Version": "3.3"
          },
          {
            "Name": "SDTMIG",
            "References": [
              {
                "Citations": [
                  {
                    "Cited_Guidance": "All death information should be populated for subjects that died during the study including any post treatment follow-up.",
                    "Document": "FDA",
                    "Section": "FDAB006"
                  }
                ],
                "Origin": "FDA Business Rules",
                "Rule_Identifier": {
                  "Id": "FB0601",
                  "Version": "1"
                },
                "Version": "1.5"
              }
            ],
            "Version": "3.4"
          }
        ]
      }
    ],
    "Check": {
      "all": [
        {
          "name": "SSSTRESC",
          "operator": "equal_to",
          "value": "DEAD",
          "value_is_literal": true
        },
        {
          "name": "DTHFL",
          "operator": "not_equal_to",
          "value": "Y",
          "value_is_literal": true
        }
      ]
    },
    "Core": {
      "Id": "CORE-000008",
      "Status": "Published",
      "Version": "1"
    },
    "Description": "Raise an error when survival status (SSSTRESC) is equal to 'DEAD' in the SS dataset, but death flag (DTHFL) is not equal to 'Y' in the DM dataset for the corresponding subject.",
    "Executability": "Fully Executable",
    "Match_Datasets": [
      {
        "Keys": [
          "USUBJID"
        ],
        "Name": "SS"
      }
    ],
    "Outcome": {
      "Message": "SSSTRESC in the SS dataset is 'DEAD', but DTHFL in the DM dataset is not equal to 'Y'.",
      "Output_Variables": [
        "DTHFL",
        "SSTESTCD",
        "SSSTRESC"
      ]
    },
    "Rule_Type": "Record Data",
    "Scope": {
      "Classes": {
        "Include": [
          "SPECIAL PURPOSE"
        ]
      },
      "Domains": {
        "Include": [
          "DM"
        ]
      }
    },
    "Sensitivity": "Record"
  },
  "CORE-000009": {
    "Authorities": [
      {
        "Organization": "CDISC",
        "Standards": [
          {
            "Name": "SDTMIG",
            "References": [
              {
                "Citations": [
                  {
                    "Cited_Guidance": "The name of the Element. If ETCD has a value of \"UNPLAN\" then ELEMENT should be null.",
                    "Document": "IG v3.4",
                    "Item": "Specification",
                    "Section": "5.3"
                  }
                ],
                "Origin": "SDTM and SDTMIG Conformance Rules",
                "Rule_Identifier": {
                  "Id": "CG0152",
                  "Version": "1"
                },
                "Version": "2.0"
              }
            ],
            "Version": "3.4"
          },
          {
            "Name": "SDTMIG",
            "References": [
              {
                "Citations": [
                  {
                    "Cited_Guidance": "The name of the Element. If ETCD has a value of \"UNPLAN\" then ELEMENT should be null.",
                    "Document": "IG v3.2",
                    "Item": "Specification",
                    "Section": "5"
                  }
                ],
                "Origin": "SDTM and SDTMIG Conformance Rules",
                "Rule_Identifier": {
                  "Id": "CG0152",
                  "Version": "1"
                },
                "Version": "2.0"
              }
            ],
            "Version": "3.2"
          },
          {
            "Name": "SDTMIG",
            "References": [
              {
                "Citations": [
                  {
                    "Cited_Guidance": "The name of the Element. If ETCD has a value of \"UNPLAN\" then ELEMENT should be null.",
                    "Document": "IG v3.3",
                    "Item": "Specification",
                    "Section": "5.3"
                  }
                ],
                "Origin": "SDTM and SDTMIG Conformance Rules",
                "Rule_Identifier": {
                  "Id": "CG0152",
                  "Version": "1"
                },
                "Version": "2.0"
              }
            ],
            "Version": "3.3"
          },
          {
            "Name": "SENDIG",
            "References": [
              {
                "Citations": [
                  {
                    "Cited_Guidance": "If ETCD has a value of UNPLAN, then Element should be blank.",
                    "Document": "SENDIG v3.0",
                    "Item": "Specification",
                    "Section": "5.3.1"
                  }
                ],
                "Origin": "SEND Conformance Rules",
                "Rule_Identifier": {
                  "Id": "SEND124.1",
                  "Version": "1"
                },
                "Version": "5.0"
              }
            ],
            "Version": "3.0"
          },
          {
            "Name": "SENDIG",
            "References": [
              {
                "Citations": [
                  {
                    "Cited_Guidance": "If the sponsor decides that the subject's experience for a particular period of time cannot be represented with one of the planned Elements, then that period of time should be represented as an unplanned Element.For unplanned Elements, ETCD should be populated with 'UNPLAN', ELEMENT should be left blank, and SEUPDES should be populated with a description of the unplanned Element.",
                    "Document": "SENDIG v3.1",
                    "Item": "Specification",
                    "Section": "5.3.1.1"
                  }
                ],
                "Origin": "SEND Conformance Rules",
                "Rule_Identifier": {
                  "Id": "SEND124.1",
                  "Version": "1"
                },
                "Version": "5.0"
              }
            ],
            "Version": "3.1"
          },
          {
            "Name": "SENDIG",
            "References": [
              {
                "Citations": [
                  {
                    "Cited_Guidance": "If the sponsor decides that the subject's experience for a particular period of time cannot be represented with one of the planned Elements, then that period of time should be represented as an unplanned Element.For unplanned Elements, ETCD should be populated with 'UNPLAN', ELEMENT should be left blank, and SEUPDES should be populated with a description of the unplanned Element.",
                    "Document": "SENDIG v3.1.1",
                    "Item": "Specification",
                    "Section": "5.3.1.1"
                  }
                ],
                "Origin": "SEND Conformance Rules",
                "Rule_Identifier": {
                  "Id": "SEND124.1",
                  "Version": "1"
                },
                "Version": "5.0"
              }
            ],
            "Version": "3.1.1"
          },
          {
            "Name": "SENDIG-DART",
            "References": [
              {
                "Citations": [
                  {
                    "Cited_Guidance": "If the sponsor decides that the subject's experience for a particular period of time cannot be represented with one of the planned Elements, then that period of time should be represented as an unplanned Element.For unplanned Elements, ETCD should be populated with 'UNPLAN', ELEMENT should be left blank, and SEUPDES should be populated with a description of the unplanned Element.",
                    "Document": "SENDIG v3.1",
                    "Item": "Specification",
                    "Section": "5.3.1.1"
                  }
                ],
                "Origin": "SEND Conformance Rules",
                "Rule_Identifier": {
                  "Id": "SEND124.1",
                  "Version": "1"
                },
                "Version": "5.0"
              }
            ],
            "Version": "1.1"
          },
          {
            "Name": "SENDIG-DART",
            "References": [
              {
                "Citations": [
                  {
                    "Cited_Guidance": "If the sponsor decides that the subject's experience for a particular period of time cannot be represented with one of the planned Elements, then that period of time should be represented as an unplanned Element.For unplanned Elements, ETCD should be populated with 'UNPLAN', ELEMENT should be left blank, and SEUPDES should be populated with a description of the unplanned Element.",
                    "Document": "SENDIG v3.1.1",
                    "Item": "Specification",
                    "Section": "5.3.1.1"
                  }
                ],
                "Origin": "SEND Conformance Rules",
                "Rule_Identifier": {
                  "Id": "SEND124.1",
                  "Version": "1"
                },
                "Version": "5.0"
              }
            ],
            "Version": "1.2"
          },
          {
            "Name": "SENDIG-GENETOX",
            "References": [
              {
                "Citations": [
                  {
                    "Cited_Guidance": "If the sponsor decides that the subject's experience for a particular period of time cannot be represented with one of the planned Elements, then that period of time should be represented as an unplanned Element.For unplanned Elements, ETCD should be populated with 'UNPLAN', ELEMENT should be left blank, and SEUPDES should be populated with a description of the unplanned Element.",
                    "Document": "SENDIG v3.1.1",
                    "Item": "Specification",
                    "Section": "5.3.1.1"
                  }
                ],
                "Origin": "SEND Conformance Rules",
                "Rule_Identifier": {
                  "Id": "SEND124.1",
                  "Version": "1"
                },
                "Version": "5.0"
              }
            ],
            "Version": "1.0"
          },
          {
            "Name": "TIG",
            "References": [
              {
                "Citations": [
                  {
                    "Cited_Guidance": "If ETCD has a value of \"UNPLAN\", then ELEMENT should be null.",
                    "Document": "TIG 1.0",
                    "Item": "Specification",
                    "Section": "2.8.10.24"
                  }
                ],
                "Origin": "TIG Conformance Rules",
                "Rule_Identifier": {
                  "Id": "TIG0393",
                  "Version": "1"
                },
                "Version": "1.0"
              }
            ],
            "Substandard": "SDTM",
            "Version": "1.0"
          },
          {
            "Name": "TIG",
            "References": [
              {
                "Citations": [
                  {
                    "Cited_Guidance": "For unplanned Elements, ETCD should be populated with \"UNPLAN\", ELEMENT should be left blank, and SEUPDES should be populated with a description of the unplanned Element.",
                    "Document": "TIG v1.0",
                    "Item": "Assumption 5",
                    "Section": "2.8.9.26"
                  }
                ],
                "Origin": "TIG Conformance Rules",
                "Rule_Identifier": {
                  "Id": "TIG0061",
                  "Version": "1"
                },
                "Version": "1.0"
              }
            ],
            "Substandard": "SEND",
            "Version": "1.0"
          }
        ]
      }
    ],
    "Check": {
      "all": [
        {
          "name": "ETCD",
          "operator": "equal_to",
          "value": "UNPLAN",
          "value_is_literal": true
        },
        {
          "name": "ELEMENT",
          "operator": "non_empty"
        }
      ]
    },
    "Core": {
      "Id": "CORE-000009",
      "Status": "Published",
      "Version": "1"
    },
    "Description": "Verify that ELEMENT value is blank when ETCD is equal to UNPLAN",
    "Executability": "Fully Executable",
    "Outcome": {
      "Message": "ELEMENT variable has a non-null value when ETCD has a value of 'UNPLAN'",
      "Output_Variables": [
        "ETCD",
        "ELEMENT"
      ]
    },
    "Rule_Type": "Record Data",
    "Scope": {
      "Classes": {
        "Include": [
          "SPECIAL PURPOSE"
        ]
      },
      "Domains": {
        "Include": [
          "SE"
        ]
      },
      "Use_Case": "INDH, NONCLIN"
    },
    "Sensitivity": "Record"
  },
  "CORE-000010": {
    "Authorities": [
      {
        "Organization": "CDISC",
        "Standards": [
          {
            "Name": "SDTMIG",
            "References": [
              {
                "Citations": [
                  {
                    "Cited_Guidance": "ARMCD is limited to 20 characters and does not have the character restrictions that apply to --TESTCD",
                    "Document": "SDTMIG v3.4",
                    "Section": "4.2.1"
                  }
                ],
                "Origin": "SDTM and SDTMIG Conformance Rules",
                "Rule_Identifier": {
                  "Id": "CG0153",
                  "Version": "1"
                },
                "Version": "2.0"
              }
            ],
            "Version": "3.4"
          },
          {
            "Name": "SDTMIG",
            "References": [
              {
                "Citations": [
                  {
                    "Cited_Guidance": "ARMCD is limited to 20 characters and does not have special character restrictions.",
                    "Document": "IG v3.2",
                    "Section": "4.1.2.1"
                  }
                ],
                "Origin": "SDTM and SDTMIG Conformance Rules",
                "Rule_Identifier": {
                  "Id": "CG0153",
                  "Version": "1"
                },
                "Version": "2.0"
              }
            ],
            "Version": "3.2"
          },
          {
            "Name": "SDTMIG",
            "References": [
              {
                "Citations": [
                  {
                    "Cited_Guidance": "ARMCD is limited to 20 characters and does not have special character restrictions.",
                    "Document": "IG v3.3",
                    "Section": "4.2.1"
                  }
                ],
                "Origin": "SDTM and SDTMIG Conformance Rules",
                "Rule_Identifier": {
                  "Id": "CG0153",
                  "Version": "1"
                },
                "Version": "2.0"
              }
            ],
            "Version": "3.3"
          },
          {
            "Name": "TIG",
            "References": [
              {
                "Citations": [
                  {
                    "Cited_Guidance": "ARMCD is limited to 20 characters and does not have special character restrictions. The maximum length of ARMCD is longer than that for other 'short' variables to accommodate the kind of values that are likely to be needed for crossover trials.",
                    "Document": "TIG 1.0",
                    "Item": "Specification ARMCD",
                    "Section": "2.8.10.27"
                  }
                ],
                "Origin": "TIG Conformance Rules",
                "Rule_Identifier": {
                  "Id": "TIG0394",
                  "Version": "1"
                },
                "Version": "1.0"
              }
            ],
            "Substandard": "SDTM",
            "Version": "1.0"
          }
        ]
      }
    ],
    "Check": {
      "all": [
        {
          "name": "ARMCD",
          "operator": "longer_than",
          "value": 20
        }
      ]
    },
    "Core": {
      "Id": "CORE-000010",
      "Status": "Published",
      "Version": "1"
    },
    "Description": "Raise an error when ARMCD value length > 20.",
    "Executability": "Fully Executable",
    "Outcome": {
      "Message": "ARMCD value length should be <= 20.",
      "Output_Variables": [
        "ARMCD"
      ]
    },
    "Rule_Type": "Record Data",
    "Scope": {
      "Classes": {
        "Include": [
          "SPECIAL PURPOSE",
          "TRIAL DESIGN"
        ]
      },
      "Domains": {
        "Include": [
          "DM",
          "TA"
        ]
      },
      "Use_Case": "INDH"
    },
    "Sensitivity": "Record"
  },
  "CORE-000011": {
    "Authorities": [
      {
        "Organization": "CDISC",
        "Standards": [
          {
            "Name": "SDTMIG",
            "References": [
              {
                "Citations": [
                  {
                    "Cited_Guidance": "The intent of the domain model is to collect responses to only those criteria that the subject did not meet, and not the responses to all criteria. ",
                    "Document": "IG v3.4",
                    "Item": "Assumption 1",
                    "Section": "6.3.4"
                  }
                ],
                "Origin": "SDTM and SDTMIG Conformance Rules",
                "Rule_Identifier": {
                  "Id": "CG0175",
                  "Version": "1"
                },
                "Version": "2.0"
              }
            ],
            "Version": "3.4"
          },
          {
            "Name": "SDTMIG",
            "References": [
              {
                "Citations": [
                  {
                    "Cited_Guidance": "The intent of the domain model is to collect response to only those criteria that the subject did not meet, and not the responses to all criteria.",
                    "Document": "IG v3.2",
                    "Item": "Assumption 2",
                    "Section": "6.3"
                  }
                ],
                "Origin": "SDTM and SDTMIG Conformance Rules",
                "Rule_Identifier": {
                  "Id": "CG0175",
                  "Version": "1"
                },
                "Version": "2.0"
              }
            ],
            "Version": "3.2"
          },
          {
            "Name": "SDTMIG",
            "References": [
              {
                "Citations": [
                  {
                    "Cited_Guidance": "The intent of the domain model is to collect response to only those criteria that the subject did not meet, and not the responses to all criteria.",
                    "Document": "IG v3.3",
                    "Item": "Assumption 1",
                    "Section": "6.3.4"
                  }
                ],
                "Origin": "SDTM and SDTMIG Conformance Rules",
                "Rule_Identifier": {
                  "Id": "CG0175",
                  "Version": "1"
                },
                "Version": "2.0"
              }
            ],
            "Version": "3.3"
          },
          {
            "Name": "TIG",
            "References": [
              {
                "Citations": [
                  {
                    "Cited_Guidance": "The intent of the domain model is to collect responses to only those criteria that the subject did not meet, and not the responses to all criteria.",
                    "Document": "TIG 1.0",
                    "Item": "Assumption 1",
                    "Section": "2.8.10.13"
                  }
                ],
                "Origin": "TIG Conformance Rules",
                "Rule_Identifier": {
                  "Id": "TIG0404",
                  "Version": "1"
                },
                "Version": "1.0"
              }
            ],
            "Substandard": "SDTM",
            "Version": "1.0"
          }
        ]
      }
    ],
    "Check": {
      "all": [
        {
          "name": "IECAT",
          "operator": "equal_to",
          "value": "EXCLUSION",
          "value_is_literal": true
        },
        {
          "name": "IEORRES",
          "operator": "not_equal_to",
          "value": "Y",
          "value_is_literal": true
        }
      ]
    },
    "Core": {
      "Id": "CORE-000011",
      "Status": "Published",
      "Version": "1"
    },
    "Description": "Raise an error when IECAT is equal to 'EXCLUSION' and IEORRES is not equal to 'Y'.",
    "Executability": "Fully Executable",
    "Outcome": {
      "Message": "IEORRES is not equal to 'Y', but IECAT is equal to 'EXCLUSION'.",
      "Output_Variables": [
        "IECAT",
        "IEORRES"
      ]
    },
    "Rule_Type": "Record Data",
    "Scope": {
      "Classes": {
        "Include": [
          "FINDINGS"
        ]
      },
      "Domains": {
        "Include": [
          "IE"
        ]
      },
      "Use_Case": "INDH"
    },
    "Sensitivity": "Record"
  },
  "CORE-000012": {
    "Authorities": [
      {
        "Organization": "CDISC",
        "Standards": [
          {
            "Name": "SDTMIG",
            "References": [
              {
                "Citations": [
                  {
                    "Cited_Guidance": "The following Qualifiers would not be used in AE; --OCCUR, --STAT, and --REASND. They are the only Qualifiers from the SDTM Events Class not in the AE domain. They are not permitted because the AE domain contains only records for adverse events that actually occurred.",
                    "Document": "SDTMIG v3.4",
                    "Item": "Assumption 9",
                    "Section": "6.2.1"
                  }
                ],
                "Origin": "SDTM and SDTMIG Conformance Rules",
                "Rule_Identifier": {
                  "Id": "CG0040",
                  "Version": "1"
                },
                "Version": "2.0"
              }
            ],
            "Version": "3.4"
          },
          {
            "Name": "SDTMIG",
            "References": [
              {
                "Citations": [
                  {
                    "Cited_Guidance": "The following Qualifiers would not be used in AE; --OCCUR, --STAT, and--REASND. They are the only Qualifiers from the SDTM Events Class not in the AE domain. They are not permitted because the AE domain contains only records for adverse events that actually occurred.",
                    "Document": "SDTMIG v3.3",
                    "Item": "Assumption 9",
                    "Section": "6.2.1"
                  }
                ],
                "Origin": "SDTM and SDTMIG Conformance Rules",
                "Rule_Identifier": {
                  "Id": "CG0040",
                  "Version": "1"
                },
                "Version": "2.0"
              }
            ],
            "Version": "3.3"
          },
          {
            "Name": "SDTMIG",
            "References": [
              {
                "Citations": [
                  {
                    "Cited_Guidance": "The following Qualifiers would not be used in AE; --OCCUR, --STAT, and--REASND. They are the only Qualifiers from the SDTM Events Class not in the AE domain. They are not permitted because the AE domain contains only records for adverse events that actually occurred.",
                    "Document": "SDTMIG v3.2",
                    "Item": "Assumption 8",
                    "Section": "6.2."
                  }
                ],
                "Origin": "SDTM and SDTMIG Conformance Rules",
                "Rule_Identifier": {
                  "Id": "CG0040",
                  "Version": "1"
                },
                "Version": "2.0"
              }
            ],
            "Version": "3.2"
          },
          {
            "Name": "TIG",
            "References": [
              {
                "Citations": [
                  {
                    "Cited_Guidance": "The following qualifiers would not be used in AE: --OCCUR, --STAT, and--REASND. They are the only qualifiers from the SDTM Events class not in the AE domain. They are not permitted because the AE domain contains only records for adverse events that actually occurred.'",
                    "Document": "TIG 1.0",
                    "Item": "Assumption 10",
                    "Section": "2.8.10.1"
                  }
                ],
                "Origin": "TIG Conformance Rules",
                "Rule_Identifier": {
                  "Id": "TIG0319",
                  "Version": "1"
                },
                "Version": "1.0"
              }
            ],
            "Substandard": "SDTM",
            "Version": "1.0"
          }
        ]
      }
    ],
    "Check": {
      "all": [
        {
          "name": "AEOCCUR",
          "operator": "exists"
        }
      ]
    },
    "Core": {
      "Id": "CORE-000012",
      "Status": "Published",
      "Version": "1"
    },
    "Description": "Raise an error when AEOCCUR exists in AE dataset.",
    "Executability": "Fully Executable",
    "Outcome": {
      "Message": "AEOCCUR should not be present in AE dataset.",
      "Output_Variables": [
        "AEOCCUR"
      ]
    },
    "Rule_Type": "Record Data",
    "Scope": {
      "Classes": {
        "Include": [
          "EVENTS"
        ]
      },
      "Domains": {
        "Include": [
          "AE"
        ]
      },
      "Use_Case": "INDH"
    },
    "Sensitivity": "Dataset"
  },
  "CORE-000013": {
    "Authorities": [
      {
        "Organization": "CDISC",
        "Standards": [
          {
            "Name": "SDTMIG",
            "References": [
              {
                "Citations": [
                  {
                    "Cited_Guidance": "The following Qualifiers would not be used in AE; \"--OCCUR\", \"--STAT\", and \"--REASND\". They are the only Qualifiers from the SDTM Events Class not in the AE domain. They are not permitted because the AE domain contains only records for adverse events that actually occurred.",
                    "Document": "SDTMIG v3.4",
                    "Item": "Assumption 9",
                    "Section": "6.2.1"
                  }
                ],
                "Origin": "SDTM and SDTMIG Conformance Rules",
                "Rule_Identifier": {
                  "Id": "CG0044",
                  "Version": "1"
                },
                "Version": "2.0"
              }
            ],
            "Version": "3.4"
          },
          {
            "Name": "SDTMIG",
            "References": [
              {
                "Citations": [
                  {
                    "Cited_Guidance": "The following Qualifiers would not be used in AE; \"--OCCUR\", \"--STAT\", and \"--REASND\". They are the only Qualifiers from the SDTM Events Class not in the AE domain. They are not permitted because the AE domain contains only records for adverse events that actually occurred.",
                    "Document": "SDTMIG v3.3",
                    "Item": "Assumption 9",
                    "Section": "6.2.1"
                  }
                ],
                "Origin": "SDTM and SDTMIG Conformance Rules",
                "Rule_Identifier": {
                  "Id": "CG0044",
                  "Version": "1"
                },
                "Version": "2.0"
              }
            ],
            "Version": "3.3"
          },
          {
            "Name": "SDTMIG",
            "References": [
              {
                "Citations": [
                  {
                    "Cited_Guidance": "The following Qualifiers would not be used in AE; \"--OCCUR\", \"--STAT\", and \"--REASND\". They are the only Qualifiers from the SDTM Events Class not in the AE domain. They are not permitted because the AE domain contains only records for adverse events that actually occurred.",
                    "Document": "SDTMIG v3.2",
                    "Item": "Assumption 8",
                    "Section": "6.2."
                  }
                ],
                "Origin": "SDTM and SDTMIG Conformance Rules",
                "Rule_Identifier": {
                  "Id": "CG0044",
                  "Version": "1"
                },
                "Version": "2.0"
              }
            ],
            "Version": "3.2"
          },
          {
            "Name": "TIG",
            "References": [
              {
                "Citations": [
                  {
                    "Cited_Guidance": "The following qualifiers would not be used in AE: --OCCUR, --STAT, and--REASND. They are the only qualifiers from the SDTM Events class not in the AE domain. They are not permitted because the AE domain contains only records for adverse events that actually occurred. See Assumption 4b for information on how to deal with negative responses or missing responses to probing questions for prespecified adverse events.",
                    "Document": "TIG 1.0",
                    "Item": "Assumption 10",
                    "Section": "2.8.10.1"
                  }
                ],
                "Origin": "TIG Conformance Rules",
                "Rule_Identifier": {
                  "Id": "TIG0323",
                  "Version": "1"
                },
                "Version": "1.0"
              }
            ],
            "Substandard": "SDTM",
            "Version": "1.0"
          }
        ]
      }
    ],
    "Check": {
      "all": [
        {
          "name": "AESTAT",
          "operator": "exists"
        }
      ]
    },
    "Core": {
      "Id": "CORE-000013",
      "Status": "Published",
      "Version": "1"
    },
    "Description": "Raise an error when AESTAT is present in AE dataset.",
    "Executability": "Fully Executable",
    "Outcome": {
      "Message": "AESTAT must not be present in AE dataset.",
      "Output_Variables": [
        "AESTAT"
      ]
    },
    "Rule_Type": "Record Data",
    "Scope": {
      "Classes": {
        "Include": [
          "EVENTS"
        ]
      },
      "Domains": {
        "Include": [
          "AE"
        ]
      },
      "Use_Case": "INDH"
    },
    "Sensitivity": "Dataset"
  },
  "CORE-000014": {
    "Authorities": [
      {
        "Organization": "CDISC",
        "Standards": [
          {
            "Name": "SDTMIG",
            "References": [
              {
                "Citations": [
                  {
                    "Cited_Guidance": "Events[--PRESP][An indication that the event was prospectively stated or detailed on the CRF. Values should be \"Y\" or null.]|Events|[--OCCUR][An indication as to whether a prespecified event has occurred.]|Events[--STAT][Used to indicate when a question about the occurrence of a prespecified event was not answered. Should be null or have a value of \"NOT DONE\".]|Interventions[--PRESP][An indication that the intervention was prospectively stated or detailed on the CRF. Values should be \"Y\" or null.]|Interventions[--OCCUR][An indication as to whether a prespecified intervention has occurred.]|Interventions[--STAT][Used to indicate when a question about the occurrence of a prespecified intervention was not answered. Should be null or have a value of \"NOT DONE\".]",
                    "Document": "Model v2.0",
                    "Item": "--PRESP|--OCCUR|--STAT",
                    "Section": "Events|Interventions"
                  }
                ],
                "Origin": "SDTM and SDTMIG Conformance Rules",
                "Rule_Identifier": {
                  "Id": "CG0087",
                  "Version": "1"
                },
                "Version": "2.0"
              }
            ],
            "Version": "3.4"
          },
          {
            "Name": "SDTMIG",
            "References": [
              {
                "Citations": [
                  {
                    "Cited_Guidance": "Model v1.4[2.2.1 (Interventions )][--PRESP: Used when a specific intervention is pre-specified on a CRF. Values should be \"Y\" or null.][--OCCUR: Used to record whether a pre-specified event occurred when information about the occurrence of a specific event is solicited.][--STAT: Used to indicate when a question about the occurrence of a pre-specified event was not answered. Should be null or hav a value of NOT DONE]|Model v1.4[2.2.2 (Events)][--PRESP: Used to indicate whether the event describe by --TERM was pre-specified on a CRF. Value is Y for pre-specified events, null for spontaneously reported events.][--OCCUR: Used to record whether a pre-specified event occurred when information about the occurrence of a specific event is solicited.][--STAT: Used to indicate when a question about the occurrence of a pre-specified event was not answered . Should be null or have a value of NOT DONE]",
                    "Document": "Model v1.4",
                    "Section": "Model v1.4[2.2.1 (Interventions )]|Model v1.4[2.2.2 (Events)]"
                  }
                ],
                "Origin": "SDTM and SDTMIG Conformance Rules",
                "Rule_Identifier": {
                  "Id": "CG0087",
                  "Version": "1"
                },
                "Version": "2.0"
              }
            ],
            "Version": "3.2"
          },
          {
            "Name": "SDTMIG",
            "References": [
              {
                "Citations": [
                  {
                    "Cited_Guidance": "Model v1.7[2.2.1 (Interventions )][--PRESP: Used when a specific intervention is pre-specified on a CRF. Values should be \"Y\" or null.][--OCCUR: Used to record whether a pre-specified event occurred when information about the occurrence of a specific event is solicited.][--STAT: Used to indicate when a question about the occurrence of a pre-specified event was not answered. Should be null or hav a value of NOT DONE]|Model v1.7[2.2.2 (Events)][--PRESP: Used to indicate whether the event describe by --TERM was pre-specified on a CRF. Value is Y for pre-specified events, null for spontaneously reported events.][--OCCUR: Used to record whether a pre-specified event occurred when information about the occurrence of a specific event is solicited.][--STAT: Used to indicate when a question about the occurrence of a pre-specified event was not answered . Should be null or have a value of NOT DONE]",
                    "Document": "Model v1.7",
                    "Section": "Model v1.7[2.2.1 (Interventions )]|Model v1.7[2.2.2 (Events)]"
                  }
                ],
                "Origin": "SDTM and SDTMIG Conformance Rules",
                "Rule_Identifier": {
                  "Id": "CG0087",
                  "Version": "1"
                },
                "Version": "2.0"
              }
            ],
            "Version": "3.3"
          },
          {
            "Name": "TIG",
            "References": [
              {
                "Citations": [
                  {
                    "Cited_Guidance": "Events[--PRESP][An indication that the event was prospectively stated or detailed on the CRF. Values should be \"Y\" or null.]|Events|[--OCCUR][An indication as to whether a prespecified event has occurred.]|Events[--STAT][Used to indicate when a question about the occurrence of a prespecified event was not answered. Should be null or have a value of \"NOT DONE\".]|Interventions[--PRESP][An indication that the intervention was prospectively stated or detailed on the CRF. Values should be \"Y\" or null.]|Interventions[--OCCUR][An indication as to whether a prespecified intervention has occurred.]|Interventions[--STAT][Used to indicate when a question about the occurrence of a prespecified intervention was not answered. Should be null or have a value of \"NOT DONE\".]",
                    "Document": "SDTM v2.1",
                    "Item": "--PRESP|--OCCUR|--STAT",
                    "Section": "Section 3.1.2 The Events Observation Class|Section 3.1.1 The Interventions Observation Class"
                  }
                ],
                "Origin": "TIG Conformance Rules",
                "Rule_Identifier": {
                  "Id": "TIG0352",
                  "Version": "1"
                },
                "Version": "1.0"
              }
            ],
            "Substandard": "SDTM",
            "Version": "1.0"
          }
        ]
      }
    ],
    "Check": {
      "all": [
        {
          "any": [
            {
              "all": [
                {
                  "any": [
                    {
                      "name": "--PRESP",
                      "operator": "not_exists"
                    },
                    {
                      "name": "--PRESP",
                      "operator": "not_equal_to",
                      "value": "Y",
                      "value_is_literal": true
                    }
                  ]
                },
                {
                  "name": "--OCCUR",
                  "operator": "exists"
                },
                {
                  "name": "--OCCUR",
                  "operator": "non_empty"
                }
              ]
            },
            {
              "all": [
                {
                  "name": "--STAT",
                  "operator": "equal_to",
                  "value": "NOT DONE",
                  "value_is_literal": true
                }
              ]
            }
          ]
        },
        {
          "all": [
            {
              "name": "--OCCUR",
              "operator": "non_empty"
            }
          ]
        }
      ]
    },
    "Core": {
      "Id": "CORE-000014",
      "Status": "Published",
      "Version": "1"
    },
    "Description": "Raise an error when --PRESP is not equal to 'Y' and --OCCUR is present in dataset, or --STAT is equal to 'NOT DONE' and --OCCUR is not empty.",
    "Executability": "Fully Executable",
    "Outcome": {
      "Message": "--OCCUR must be null when --PRESP is not equal to 'Y' or when --STAT is 'NOT DONE'.",
      "Output_Variables": [
        "--PRESP",
        "--OCCUR",
        "--STAT"
      ]
    },
    "Rule_Type": "Record Data",
    "Scope": {
      "Classes": {
        "Include": [
          "EVENTS",
          "INTERVENTIONS"
        ]
      },
      "Domains": {
        "Exclude": [
          "AE",
          "DS",
          "DV",
          "EX"
        ]
      },
      "Use_Case": "INDH, PROD"
    },
    "Sensitivity": "Record"
  },
  "CORE-000015": {
    "Authorities": [
      {
        "Organization": "CDISC",
        "Standards": [
          {
            "Name": "SDTMIG",
            "References": [
              {
                "Citations": [
                  {
                    "Cited_Guidance": "Events[--PRESP][An indication that the event was prospectively stated or detailed on the CRF. Values should be \"Y\" or null.]|Events|[--OCCUR][An indication as to whether a prespecified event has occurred.]|Events[--STAT][Used to indicate when a question about the occurrence of a prespecified event was not answered. Should be null or have a value of \"NOT DONE\".]|Interventions[--PRESP][An indication that the intervention was prospectively stated or detailed on the CRF. Values should be \"Y\" or null.]|Interventions[--OCCUR][An indication as to whether a prespecified intervention has occurred.]|Interventions[--STAT][Used to indicate when a question about the occurrence of a prespecified intervention was not answered. Should be null or have a value of \"NOT DONE\".]",
                    "Document": "Model v2.0",
                    "Item": "--PRESP|--OCCUR|--STAT",
                    "Section": "Events|Interventions"
                  }
                ],
                "Origin": "SDTM and SDTMIG Conformance Rules",
                "Rule_Identifier": {
                  "Id": "CG0088",
                  "Version": "1"
                },
                "Version": "2.0"
              }
            ],
            "Version": "3.4"
          },
          {
            "Name": "SDTMIG",
            "References": [
              {
                "Citations": [
                  {
                    "Cited_Guidance": "Model v1.4[2.2.1 (Interventions )][--PRESP: Used when a specific intervention is pre-specified on a CRF. Values should be \"Y\" or null.][--OCCUR: Used to record whether a pre-specified event occurred when information about the occurrence of a specific event is solicited.]|Model v1.4[2.2.2 (Events)][--PRESP: Used to indicate whether the event describe by --TERM was pre-specified on a CRF. Value is Y for pre-specified events, null for spontaneously reported events.][--OCCUR: Used to record whether a pre-specified event occurred when information about the occurrence of a specific event is solicited.]",
                    "Document": "Model v1.4",
                    "Section": "Model v1.4[2.2.1 (Interventions )]|Model v1.4[2.2.2 (Events)]"
                  }
                ],
                "Origin": "SDTM and SDTMIG Conformance Rules",
                "Rule_Identifier": {
                  "Id": "CG0088",
                  "Version": "1"
                },
                "Version": "2.0"
              }
            ],
            "Version": "3.2"
          },
          {
            "Name": "SDTMIG",
            "References": [
              {
                "Citations": [
                  {
                    "Cited_Guidance": "Model v1.7[2.2.1 (Interventions )][--PRESP: Used when a specific intervention is pre-specified on a CRF. Values should be \"Y\" or null.][--OCCUR: Used to record whether a pre-specified event occurred when information about the occurrence of a specific event is solicited.]|Model v1.7[2.2.2 (Events)][--PRESP: Used to indicate whether the event describe by --TERM was pre-specified on a CRF. Value is Y for pre-specified events, null for spontaneously reported events.][--OCCUR: Used to record whether a pre-specified event occurred when information about the occurrence of a specific event is solicited.]",
                    "Document": "Model v1.7",
                    "Section": "Model v1.7[2.2.1 (Interventions )]|Model v1.7[2.2.2 (Events)]"
                  }
                ],
                "Origin": "SDTM and SDTMIG Conformance Rules",
                "Rule_Identifier": {
                  "Id": "CG0088",
                  "Version": "1"
                },
                "Version": "2.0"
              }
            ],
            "Version": "3.3"
          },
          {
            "Name": "TIG",
            "References": [
              {
                "Citations": [
                  {
                    "Cited_Guidance": "Events[--PRESP][An indication that the event was prospectively stated or detailed on the CRF. Values should be \"Y\" or null.]|Events|[--OCCUR][An indication as to whether a prespecified event has occurred.]|Events[--STAT][Used to indicate when a question about the occurrence of a prespecified event was not answered. Should be null or have a value of \"NOT DONE\".]|Interventions[--PRESP][An indication that the intervention was prospectively stated or detailed on the CRF. Values should be \"Y\" or null.]|Interventions[--OCCUR][An indication as to whether a prespecified intervention has occurred.]|Interventions[--STAT][Used to indicate when a question about the occurrence of a prespecified intervention was not answered. Should be null or have a value of \"NOT DONE\".]",
                    "Document": "SDTM v2.1",
                    "Item": "--PRESP|--OCCUR|--STAT",
                    "Section": "Section 3.1.2 The Events Observation Class|Section 3.1.1 The Interventions Observation Class"
                  }
                ],
                "Origin": "TIG Conformance Rules",
                "Rule_Identifier": {
                  "Id": "TIG0353",
                  "Version": "1"
                },
                "Version": "1.0"
              }
            ],
            "Substandard": "SDTM",
            "Version": "1.0"
          }
        ]
      }
    ],
    "Check": {
      "all": [
        {
          "name": "--PRESP",
          "operator": "not_exists"
        },
        {
          "name": "--OCCUR",
          "operator": "exists"
        }
      ]
    },
    "Core": {
      "Id": "CORE-000015",
      "Status": "Published",
      "Version": "1"
    },
    "Description": "Raise an error when --PRESP is not present in dataset and --OCCUR is present in dataset.",
    "Executability": "Fully Executable",
    "Outcome": {
      "Message": "--PRESP is not present in dataset when --OCCUR is present in dataset.",
      "Output_Variables": [
        "--PRESP",
        "--OCCUR"
      ]
    },
    "Rule_Type": "Record Data",
    "Scope": {
      "Classes": {
        "Include": [
          "EVENTS",
          "INTERVENTIONS"
        ]
      },
      "Domains": {
        "Exclude": [
          "AE",
          "DS",
          "DV",
          "EX"
        ]
      },
      "Use_Case": "INDH, PROD"
    },
    "Sensitivity": "Dataset"
  },
  "CORE-000016": {
    "Authorities": [
      {
        "Organization": "CDISC",
        "Standards": [
          {
            "Name": "SDTMIG",
            "References": [
              {
                "Citations": [
                  {
                    "Cited_Guidance": "Events[--PRESP][An indication that the event was prospectively stated or detailed on the CRF. Values should be \"Y\" or null.]|Events|[--OCCUR][An indication as to whether a prespecified event has occurred.]",
                    "Document": "Model v2.0",
                    "Item": "--PRESP|--OCCUR",
                    "Section": "Events"
                  },
                  {
                    "Cited_Guidance": "Interventions[--PRESP][An indication that the intervention was prospectively stated or detailed on the CRF. Values should be \"Y\" or null.]|Interventions[--OCCUR][An indication as to whether a prespecified intervention has occurred.]",
                    "Document": "Model v2.0",
                    "Section": "Interventions"
                  }
                ],
                "Origin": "SDTM and SDTMIG Conformance Rules",
                "Rule_Identifier": {
                  "Id": "CG0089",
                  "Version": "1"
                },
                "Version": "2.0"
              }
            ],
            "Version": "3.4"
          },
          {
            "Name": "SDTMIG",
            "References": [
              {
                "Citations": [
                  {
                    "Cited_Guidance": "Model v1.4[2.2.1 (Interventions )][--PRESP: Used when a specific intervention is pre-specified on a CRF. Values should be \"Y\" or null.][--OCCUR: Used to record whether a pre-specified event occurred when information about the occurrence of a specific event is solicited.]|Model v1.4[2.2.2 (Events)][--PRESP: Used to indicate whether the event describe by --TERM was pre-specified on a CRF. Value is Y for pre-specified events, null for spontaneously reported events.][--OCCUR: Used to record whether a pre-specified event occurred when information about the occurrence of a specific event is solicited.]",
                    "Document": "Model v1.4",
                    "Section": "Model v1.4[2.2.1 (Interventions )]|Model v1.4[2.2.2 (Events)]"
                  }
                ],
                "Origin": "SDTM and SDTMIG Conformance Rules",
                "Rule_Identifier": {
                  "Id": "CG0089",
                  "Version": "1"
                },
                "Version": "2.0"
              }
            ],
            "Version": "3.2"
          },
          {
            "Name": "SDTMIG",
            "References": [
              {
                "Citations": [
                  {
                    "Cited_Guidance": "Model v1.7[2.2.1 (Interventions )][--PRESP: Used when a specific intervention is pre-specified on a CRF. Values should be \"Y\" or null.][--OCCUR: Used to record whether a pre-specified event occurred when information about the occurrence of a specific event is solicited.]|Model v1.7[2.2.2 (Events)][--PRESP: Used to indicate whether the event describe by --TERM was pre-specified on a CRF. Value is Y for pre-specified events, null for spontaneously reported events.][--OCCUR: Used to record whether a pre-specified event occurred when information about the occurrence of a specific event is solicited.]",
                    "Document": "Model v1.7",
                    "Section": "Model v1.7[2.2.1 (Interventions )]|Model v1.7[2.2.2 (Events)]"
                  }
                ],
                "Origin": "SDTM and SDTMIG Conformance Rules",
                "Rule_Identifier": {
                  "Id": "CG0089",
                  "Version": "1"
                },
                "Version": "2.0"
              }
            ],
            "Version": "3.3"
          },
          {
            "Name": "TIG",
            "References": [
              {
                "Citations": [
                  {
                    "Cited_Guidance": "(--PRESP) An indication that the event was prospectively stated or detailed on the CRF. Values should be \"Y\" or null. (--OCCUR) An indication as to whether a prespecified event has occurred.",
                    "Document": "SDTM v2.1",
                    "Item": "--PRESP|--OCCUR",
                    "Section": "Section 3.1.2 The Events Observation Class"
                  },
                  {
                    "Cited_Guidance": "(--PRESP) An indication that the intervention was prospectively stated or detailed on the CRF. Values should be \"Y\" or null.(--OCCUR) An indication as to whether a prespecified intervention has occurred.",
                    "Document": "SDTM v2.1",
                    "Item": "--PRESP|--OCCUR",
                    "Section": "3.1.1 The Interventions Observation Class"
                  }
                ],
                "Origin": "TIG Conformance Rules",
                "Rule_Identifier": {
                  "Id": "TIG0354",
                  "Version": "1"
                },
                "Version": "1.0"
              }
            ],
            "Substandard": "SDTM",
            "Version": "1.0"
          }
        ]
      }
    ],
    "Check": {
      "all": [
        {
          "name": "--OCCUR",
          "operator": "non_empty"
        },
        {
          "any": [
            {
              "name": "--PRESP",
              "operator": "not_exists"
            },
            {
              "name": "--PRESP",
              "operator": "not_equal_to",
              "value": "Y",
              "value_is_literal": true
            }
          ]
        }
      ]
    },
    "Core": {
      "Id": "CORE-000016",
      "Status": "Published",
      "Version": "1"
    },
    "Description": "Raise an error when --OCCUR is populated but --PRESP is not equal to 'Y'.",
    "Executability": "Fully Executable",
    "Outcome": {
      "Message": "--PRESP should be populated as 'Y' when --OCCUR is populated.",
      "Output_Variables": [
        "--PRESP",
        "--OCCUR"
      ]
    },
    "Rule_Type": "Record Data",
    "Scope": {
      "Classes": {
        "Include": [
          "EVENTS",
          "INTERVENTIONS"
        ]
      },
      "Domains": {
        "Exclude": [
          "AE",
          "DS",
          "DV",
          "EX"
        ]
      },
      "Use_Case": "INDH"
    },
    "Sensitivity": "Record"
  },
  "CORE-000017": {
    "Authorities": [
      {
        "Organization": "CDISC",
        "Standards": [
          {
            "Name": "SDTMIG",
            "References": [
              {
                "Citations": [
                  {
                    "Cited_Guidance": "Two-character abbreviation for the domain of the parent record(s). Null for comments collected on a general comments or additional information CRF page.",
                    "Document": "IG v3.4",
                    "Item": "Specification",
                    "Section": "5.1"
                  }
                ],
                "Origin": "SDTM and SDTMIG Conformance Rules",
                "Rule_Identifier": {
                  "Id": "CG0166",
                  "Version": "1"
                },
                "Version": "2.0"
              }
            ],
            "Version": "3.4"
          },
          {
            "Name": "SDTMIG",
            "References": [
              {
                "Citations": [
                  {
                    "Cited_Guidance": "Value of identifying variable of the parent record(s). Used only when individual comments are related to domain records. null for comments collected on separate CRFs.",
                    "Document": "IG v3.2",
                    "Item": "Specification",
                    "Section": "5"
                  }
                ],
                "Origin": "SDTM and SDTMIG Conformance Rules",
                "Rule_Identifier": {
                  "Id": "CG0166",
                  "Version": "1"
                },
                "Version": "2.0"
              }
            ],
            "Version": "3.2"
          },
          {
            "Name": "SDTMIG",
            "References": [
              {
                "Citations": [
                  {
                    "Cited_Guidance": "Value of identifying variable of the parent record(s). Used only when individual comments are related to domain records. null for comments collected on separate CRFs.",
                    "Document": "IG v3.3",
                    "Item": "Specification",
                    "Section": "5.1"
                  }
                ],
                "Origin": "SDTM and SDTMIG Conformance Rules",
                "Rule_Identifier": {
                  "Id": "CG0166",
                  "Version": "1"
                },
                "Version": "2.0"
              }
            ],
            "Version": "3.3"
          },
          {
            "Name": "TIG",
            "References": [
              {
                "Citations": [
                  {
                    "Cited_Guidance": "Two-character abbreviation for the domain of the parent record(s). Null for comments collected on a general comments or additional information CRF page.",
                    "Document": "TIG 1.0",
                    "Item": "Specification",
                    "Section": "2.8.10.2"
                  }
                ],
                "Origin": "TIG Conformance Rules",
                "Rule_Identifier": {
                  "Id": "TIG0398",
                  "Version": "1"
                },
                "Version": "1.0"
              }
            ],
            "Substandard": "SDTM",
            "Version": "1.0"
          }
        ]
      }
    ],
    "Check": {
      "all": [
        {
          "name": "IDVARVAL",
          "operator": "non_empty"
        },
        {
          "any": [
            {
              "name": "RDOMAIN",
              "operator": "empty"
            },
            {
              "name": "RDOMAIN",
              "operator": "not_exists"
            }
          ]
        }
      ]
    },
    "Core": {
      "Id": "CORE-000017",
      "Status": "Published",
      "Version": "1"
    },
    "Description": "Raise an error when IDVARVAL is populated but RDOMAIN is missing.",
    "Executability": "Fully Executable",
    "Outcome": {
      "Message": "When IDVARVAL is populated then RDOMAIN should also be populated.",
      "Output_Variables": [
        "IDVARVAL",
        "IDVAR"
      ]
    },
    "Rule_Type": "Record Data",
    "Scope": {
      "Classes": {
        "Include": [
          "SPECIAL PURPOSE"
        ]
      },
      "Domains": {
        "Include": [
          "CO"
        ]
      },
      "Use_Case": "INDH"
    },
    "Sensitivity": "Record"
  },
  "CORE-000018": {
    "Authorities": [
      {
        "Organization": "CDISC",
        "Standards": [
          {
            "Name": "SDTMIG",
            "References": [
              {
                "Citations": [
                  {
                    "Cited_Guidance": "Events[--PRESP][An indication that the event was prospectively stated or detailed on the CRF. Values should be \"Y\" or null.]|Events|[--OCCUR][An indication as to whether a prespecified event has occurred.]|Events[--STAT][Used to indicate when a question about the occurrence of a prespecified event was not answered. Should be null or have a value of \"NOT DONE\".]|Interventions[--PRESP][An indication that the intervention was prospectively stated or detailed on the CRF. Values should be \"Y\" or null.]|Interventions[--OCCUR][An indication as to whether a prespecified intervention has occurred.]|Interventions[--STAT][Used to indicate when a question about the occurrence of a prespecified intervention was not answered. Should be null or have a value of \"NOT DONE\".]",
                    "Document": "Model v2.0",
                    "Item": "--PRESP|--OCCUR|--STAT",
                    "Section": "Events|Interventions"
                  }
                ],
                "Origin": "SDTM and SDTMIG Conformance Rules",
                "Rule_Identifier": {
                  "Id": "CG0086",
                  "Version": "1"
                },
                "Version": "2.0"
              }
            ],
            "Version": "3.4"
          },
          {
            "Name": "SDTMIG",
            "References": [
              {
                "Citations": [
                  {
                    "Cited_Guidance": "Model v1.4[2.2.1 (Interventions )][--PRESP: Used when a specific intervention is pre-specified on a CRF. Values should be \"Y\" or null.][--OCCUR: Used to record whether a pre-specified event occurred when information about the occurrence of a specific event is solicited.][--STAT: Used to indicate when a question about the occurrence of a pre-specified event was not answered. Should be null or hav a value of NOT DONE]|Model v1.4[2.2.2 (Events)][--PRESP: Used to indicate whether the event describe by --TERM was pre-specified on a CRF. Value is Y for pre-specified events, null for spontaneously reported events.][--OCCUR: Used to record whether a pre-specified event occurred when information about the occurrence of a specific event is solicited.][--STAT: Used to indicate when a question about the occurrence of a pre-specified event was not answered . Should be null or have a value of NOT DONE]",
                    "Document": "Model v1.4",
                    "Section": "Model v1.4[2.2.1 (Interventions)]|Model v1.4[2.2.2 (Events)]"
                  }
                ],
                "Origin": "SDTM and SDTMIG Conformance Rules",
                "Rule_Identifier": {
                  "Id": "CG0086",
                  "Version": "1"
                },
                "Version": "2.0"
              }
            ],
            "Version": "3.2"
          },
          {
            "Name": "SDTMIG",
            "References": [
              {
                "Citations": [
                  {
                    "Cited_Guidance": "Model v1.7[2.2.1 (Interventions )][--PRESP: Used when a specific intervention is pre-specified on a CRF. Values should be \"Y\" or null.][--OCCUR: Used to record whether a pre-specified event occurred when information about the occurrence of a specific event is solicited.][--STAT: Used to indicate when a question about the occurrence of a pre-specified event was not answered. Should be null or hav a value of NOT DONE]|Model v1.7[2.2.2 (Events)][--PRESP: Used to indicate whether the event describe by --TERM was pre-specified on a CRF. Value is Y for pre-specified events, null for spontaneously reported events.][--OCCUR: Used to record whether a pre-specified event occurred when information about the occurrence of a specific event is solicited.][--STAT: Used to indicate when a question about the occurrence of a pre-specified event was not answered . Should be null or have a value of NOT DONE]",
                    "Document": "Model v1.7",
                    "Section": "Model v1.7[2.2.1 (Interventions)]|Model v1.7[2.2.2 (Events)]"
                  }
                ],
                "Origin": "SDTM and SDTMIG Conformance Rules",
                "Rule_Identifier": {
                  "Id": "CG0086",
                  "Version": "1"
                },
                "Version": "2.0"
              }
            ],
            "Version": "3.3"
          },
          {
            "Name": "TIG",
            "References": [
              {
                "Citations": [
                  {
                    "Cited_Guidance": "Events[--PRESP][An indication that the event was prospectively stated or detailed on the CRF. Values should be \"Y\" or null.]|Events|[--OCCUR][An indication as to whether a prespecified event has occurred.]|Events[--STAT][Used to indicate when a question about the occurrence of a prespecified event was not answered. Should be null or have a value of \"NOT DONE\".]|Interventions[--PRESP][An indication that the intervention was prospectively stated or detailed on the CRF. Values should be \"Y\" or null.]|Interventions[--OCCUR][An indication as to whether a prespecified intervention has occurred.]|Interventions[--STAT][Used to indicate when a question about the occurrence of a prespecified intervention was not answered. Should be null or have a value of \"NOT DONE\".]",
                    "Document": "SDTM v2.1",
                    "Item": "--PRESP|--OCCUR|--STAT",
                    "Section": "Section 3.1.2 The Events Observation Class|Section 3.1.1 The Interventions Observation Class"
                  }
                ],
                "Origin": "TIG Conformance Rules",
                "Rule_Identifier": {
                  "Id": "TIG0351",
                  "Version": "1"
                },
                "Version": "1.0"
              }
            ],
            "Substandard": "SDTM",
            "Version": "1.0"
          }
        ]
      }
    ],
    "Check": {
      "all": [
        {
          "name": "--PRESP",
          "operator": "equal_to",
          "value": "Y",
          "value_is_literal": true
        },
        {
          "any": [
            {
              "name": "--STAT",
              "operator": "not_exists"
            },
            {
              "name": "--STAT",
              "operator": "empty"
            }
          ]
        },
        {
          "name": "--OCCUR",
          "operator": "exists"
        },
        {
          "name": "--OCCUR",
          "operator": "empty"
        }
      ]
    },
    "Core": {
      "Id": "CORE-000018",
      "Status": "Published",
      "Version": "1"
    },
    "Description": "Raise an error when --PRESP is equal to 'Y', --STAT is not populated and --OCCUR is present in dataset but not populated.",
    "Executability": "Fully Executable",
    "Outcome": {
      "Message": "--OCCUR is not populated when --PRESP is equal to 'Y' and --STAT is not populated.",
      "Output_Variables": [
        "--PRESP",
        "--OCCUR",
        "--STAT"
      ]
    },
    "Rule_Type": "Record Data",
    "Scope": {
      "Classes": {
        "Include": [
          "EVENTS",
          "INTERVENTIONS"
        ]
      },
      "Domains": {
        "Exclude": [
          "AE",
          "DS",
          "DV",
          "EX"
        ]
      },
      "Use_Case": "INDH"
    },
    "Sensitivity": "Record"
  },
  "CORE-000019": {
    "Authorities": [
      {
        "Organization": "CDISC",
        "Standards": [
          {
            "Name": "SDTMIG",
            "References": [
              {
                "Citations": [
                  {
                    "Cited_Guidance": "Variable descriptive names (labels), up to 40 characters, should be provided as data variable labels for all variables, including Supplemental Qualifier variables.",
                    "Document": "IG v3.4",
                    "Section": "4.2.1"
                  }
                ],
                "Origin": "SDTM and SDTMIG Conformance Rules",
                "Rule_Identifier": {
                  "Id": "CG0311",
                  "Version": "1"
                },
                "Version": "2.0"
              }
            ],
            "Version": "3.4"
          },
          {
            "Name": "SDTMIG",
            "References": [
              {
                "Citations": [
                  {
                    "Cited_Guidance": "A descriptive Variable Label, using up to 40 characters, which should be unique for each variable in the dataset",
                    "Document": "IG v3.2",
                    "Section": "2.2"
                  }
                ],
                "Origin": "SDTM and SDTMIG Conformance Rules",
                "Rule_Identifier": {
                  "Id": "CG0311",
                  "Version": "1"
                },
                "Version": "2.0"
              }
            ],
            "Version": "3.2"
          },
          {
            "Name": "SDTMIG",
            "References": [
              {
                "Citations": [
                  {
                    "Cited_Guidance": "Variable descriptive names (labels), up to 40 characters, should be provided as data variable labels for all variables, including Supplemental Qualifier variables.",
                    "Document": "IG v3.3",
                    "Section": "4.2.1"
                  }
                ],
                "Origin": "SDTM and SDTMIG Conformance Rules",
                "Rule_Identifier": {
                  "Id": "CG0311",
                  "Version": "1"
                },
                "Version": "2.0"
              }
            ],
            "Version": "3.3"
          },
          {
            "Name": "SENDIG",
            "References": [
              {
                "Citations": [
                  {
                    "Cited_Guidance": "A descriptive Variable Label, using up to 40 characters, which should be unique for each variable in the dataset.",
                    "Document": "SENDIG v3.1",
                    "Item": "Text",
                    "Section": "3.2.2"
                  }
                ],
                "Origin": "SEND Conformance Rules",
                "Rule_Identifier": {
                  "Id": "SEND3",
                  "Version": "1"
                },
                "Version": "5.0"
              }
            ],
            "Version": "3.1"
          },
          {
            "Name": "SENDIG",
            "References": [
              {
                "Citations": [
                  {
                    "Cited_Guidance": "A descriptive Variable Label, using up to 40 characters, which should be unique for each variable in the dataset.",
                    "Document": "SENDIG v3.1.1",
                    "Item": "Text",
                    "Section": "3.2.2"
                  }
                ],
                "Origin": "SEND Conformance Rules",
                "Rule_Identifier": {
                  "Id": "SEND3",
                  "Version": "1"
                },
                "Version": "5.0"
              }
            ],
            "Version": "3.1.1"
          },
          {
            "Name": "SENDIG",
            "References": [
              {
                "Citations": [
                  {
                    "Cited_Guidance": "A descriptive Variable Label, using up to 40 characters, which should be unique for each variable in the dataset.",
                    "Document": "SENDIG v3.0",
                    "Item": "Text",
                    "Section": "3.2.2"
                  }
                ],
                "Origin": "SEND Conformance Rules",
                "Rule_Identifier": {
                  "Id": "SEND3",
                  "Version": "1"
                },
                "Version": "5.0"
              }
            ],
            "Version": "3.0"
          },
          {
            "Name": "SENDIG-DART",
            "References": [
              {
                "Citations": [
                  {
                    "Cited_Guidance": "A descriptive Variable Label, using up to 40 characters, which should be unique for each variable in the dataset.",
                    "Document": "SENDIG v3.1",
                    "Item": "Text",
                    "Section": "3.2.2"
                  }
                ],
                "Origin": "SEND Conformance Rules",
                "Rule_Identifier": {
                  "Id": "SEND3",
                  "Version": "1"
                },
                "Version": "5.0"
              }
            ],
            "Version": "1.1"
          },
          {
            "Name": "SENDIG-DART",
            "References": [
              {
                "Citations": [
                  {
                    "Cited_Guidance": "A descriptive Variable Label, using up to 40 characters, which should be unique for each variable in the dataset.",
                    "Document": "SENDIG v3.1.1",
                    "Item": "Text",
                    "Section": "3.2.2"
                  }
                ],
                "Origin": "SEND Conformance Rules",
                "Rule_Identifier": {
                  "Id": "SEND3",
                  "Version": "1"
                },
                "Version": "5.0"
              }
            ],
            "Version": "1.2"
          },
          {
            "Name": "SENDIG-GENETOX",
            "References": [
              {
                "Citations": [
                  {
                    "Cited_Guidance": "A descriptive Variable Label, using up to 40 characters, which should be unique for each variable in the dataset.",
                    "Document": "SENDIG v3.1.1",
                    "Item": "Text",
                    "Section": "3.2.2"
                  }
                ],
                "Origin": "SEND Conformance Rules",
                "Rule_Identifier": {
                  "Id": "SEND3",
                  "Version": "1"
                },
                "Version": "5.0"
              }
            ],
            "Version": "1.0"
          },
          {
            "Name": "TIG",
            "References": [
              {
                "Citations": [
                  {
                    "Cited_Guidance": "Descriptive labels per this guide, up to 40 characters, will be provided as data variable labels for all variables, including Supplemental Qualifier variables.",
                    "Document": "TIG 1.0",
                    "Item": "Num 5",
                    "Section": "2.6"
                  }
                ],
                "Origin": "TIG Conformance Rules",
                "Rule_Identifier": {
                  "Id": "TIG0486",
                  "Version": "1"
                },
                "Version": "1.0"
              }
            ],
            "Substandard": "SDTM",
            "Version": "1.0"
          },
          {
            "Name": "TIG",
            "References": [
              {
                "Citations": [
                  {
                    "Cited_Guidance": "Descriptive labels per this guide, up to 40 characters, will be provided as data variable labels for all variables, including Supplemental Qualifier variables.",
                    "Document": "TIG v1.0",
                    "Item": "Tabulation Datasets Table, Num 5",
                    "Section": "2.6 Guidance for Datasets"
                  }
                ],
                "Origin": "TIG Conformance Rules",
                "Rule_Identifier": {
                  "Id": "TIG0211",
                  "Version": "1"
                },
                "Version": "1.0"
              }
            ],
            "Substandard": "SEND",
            "Version": "1.0"
          }
        ]
      }
    ],
    "Check": {
      "all": [
        {
          "name": "variable_label",
          "operator": "longer_than",
          "value": 40
        }
      ]
    },
    "Core": {
      "Id": "CORE-000019",
      "Status": "Published",
      "Version": "1"
    },
    "Description": "Raise an error when Variable label length > 40.",
    "Executability": "Fully Executable",
    "Outcome": {
      "Message": "Variable label length should <= 40.",
      "Output_Variables": [
        "variable_name",
        "variable_label"
      ]
    },
    "Rule_Type": "Variable Metadata Check",
    "Scope": {
      "Classes": {
        "Include": [
          "ALL"
        ]
      },
      "Domains": {
        "Include": [
          "ALL"
        ]
      },
      "Use_Case": "INDH, PROD, NONCLIN"
    },
    "Sensitivity": "Record"
  },
  "CORE-000020": {
    "Authorities": [
      {
        "Organization": "CDISC",
        "Standards": [
          {
            "Name": "SDTMIG",
            "References": [
              {
                "Citations": [
                  {
                    "Cited_Guidance": "TAETORD will not be populated for subject Elements that are not planned for the Arm to which the subject was assigned. Thus, TAETORD will not be populated for any Element with an ETCD value of UNPLAN.",
                    "Document": "IG v3.4",
                    "Item": "Assumption 6",
                    "Section": "5.3"
                  }
                ],
                "Origin": "SDTM and SDTMIG Conformance Rules",
                "Rule_Identifier": {
                  "Id": "CG0206",
                  "Version": "1"
                },
                "Version": "2.0"
              }
            ],
            "Version": "3.4"
          },
          {
            "Name": "SDTMIG",
            "References": [
              {
                "Citations": [
                  {
                    "Cited_Guidance": "TAETORD will not be populated for subject Elements that are not planned for the Arm to which the subject was assigned. Thus, TAETORD will not be populated for any Element with an ETCD value of \"UNPLAN\". TAETORD will also not be populated if a subject passed through an Element that, although defined in the TE dataset, was out of place for the Arm to which the subject was assigned. For example, if a subject in a parallel study of Drug A vs. Drug B was assigned to receive Drug A, but received Drug B instead, then TAETORD would be left blank for the SE record for their Drug B Element. If a subject was assigned to receive the sequence of Elements A, B, C, D, and instead received A, D, B, C, then the sponsor would have to decide for which of these subject Element records TAETORD should be populated. The rationale for this decision should be documented in the Comments column of the define.xml.",
                    "Document": "IG v3.2",
                    "Item": "Assumption 8",
                    "Section": "5 SE"
                  }
                ],
                "Origin": "SDTM and SDTMIG Conformance Rules",
                "Rule_Identifier": {
                  "Id": "CG0206",
                  "Version": "1"
                },
                "Version": "2.0"
              }
            ],
            "Version": "3.2"
          },
          {
            "Name": "SDTMIG",
            "References": [
              {
                "Citations": [
                  {
                    "Cited_Guidance": "TAETORD will not be populated for subject Elements that are not planned for the Arm to which the subject was assigned. Thus, TAETORD will not be populated for any Element with an ETCD value of \"UNPLAN\". TAETORD will also not be populated if a subject passed through an Element that, although defined in the TE dataset, was out of place for the Arm to which the subject was assigned. For example, if a subject in a parallel study of Drug A vs. Drug B was assigned to receive Drug A, but received Drug B instead, then TAETORD would be left blank for the SE record for their Drug B Element. If a subject was assigned to receive the sequence of Elements A, B, C, D, and instead received A, D, B, C, then the sponsor would have to decide for which of these subject Element records TAETORD should be populated. The rationale for this decision should be documented in the Comments column of the define.xml.",
                    "Document": "IG v3.3",
                    "Item": "Assumption 6",
                    "Section": "5.3"
                  }
                ],
                "Origin": "SDTM and SDTMIG Conformance Rules",
                "Rule_Identifier": {
                  "Id": "CG0206",
                  "Version": "1"
                },
                "Version": "2.0"
              }
            ],
            "Version": "3.3"
          },
          {
            "Name": "TIG",
            "References": [
              {
                "Citations": [
                  {
                    "Cited_Guidance": "TAETORD will not be populated for subject Elements that are not planned for the Arm to which the subject was assigned. Thus, TAETORD will not be populated for any Element with an ETCD value of “UNPLAN”.",
                    "Document": "TIG 1.0",
                    "Item": "Assumption  5",
                    "Section": "2.8.10.24"
                  }
                ],
                "Origin": "TIG Conformance Rules",
                "Rule_Identifier": {
                  "Id": "TIG0426",
                  "Version": "1"
                },
                "Version": "1.0"
              }
            ],
            "Substandard": "SDTM",
            "Version": "1.0"
          }
        ]
      }
    ],
    "Check": {
      "all": [
        {
          "name": "ETCD",
          "operator": "equal_to",
          "value": "UNPLAN",
          "value_is_literal": true
        },
        {
          "name": "TAETORD",
          "operator": "non_empty"
        }
      ]
    },
    "Core": {
      "Id": "CORE-000020",
      "Status": "Published",
      "Version": "1"
    },
    "Description": "Raise an error when ETCD = 'UNPLAN' but TAETORD is populated.",
    "Executability": "Fully Executable",
    "Outcome": {
      "Message": "TAETORD must be null when ETCD = 'UNPLAN'.",
      "Output_Variables": [
        "ETCD",
        "TAETORD"
      ]
    },
    "Rule_Type": "Record Data",
    "Scope": {
      "Classes": {
        "Include": [
          "SPECIAL PURPOSE"
        ]
      },
      "Domains": {
        "Include": [
          "SE"
        ]
      },
      "Use_Case": "INDH"
    },
    "Sensitivity": "Record"
  },
  "CORE-000021": {
    "Authorities": [
      {
        "Organization": "CDISC",
        "Standards": [
          {
            "Name": "SDTMIG",
            "References": [
              {
                "Citations": [
                  {
                    "Cited_Guidance": "Model v2.0[Findings][The standardized result of the measurement, test, or examination in character format. --STRESC should store all results or findings in character format; if results are numeric, they should also be stored in numeric format in --STRESN. If various tests have results \"NONE\", \"NEG\", and \"NEGATIVE\" in --ORRES and these results effectively have the same meaning, they could be represented in standard format in --STRESC as \"NEGATIVE\".]|IG v3.4[6.3.5.3][Contains the result value for all findings, copied or derived from LBORRES in a standard format or standard units.]",
                    "Document": "Model v2.0|IG v3.4",
                    "Item": "Specification",
                    "Section": "Findings|6.3.5.3"
                  }
                ],
                "Origin": "SDTM and SDTMIG Conformance Rules",
                "Rule_Identifier": {
                  "Id": "CG0397",
                  "Version": "1"
                },
                "Version": "2.0"
              }
            ],
            "Version": "3.4"
          },
          {
            "Name": "SDTMIG",
            "References": [
              {
                "Citations": [
                  {
                    "Cited_Guidance": "IG v3.2[6.3 LB][Contains the result value for all findings; copied or derived from LBORRES in a standard format or standard units. LBSTRESC should store all results or findings in character format; if results are numeric; they should also be stored in numeric format in LBSTRESN. For example; if a test has results 'NONE'; 'NEG'; and 'NEGATIVE' in LBORRES and these results effectively have the same meaning; they could be represented in standard format in LBSTRESC as 'NEGATIVE'. For other examples; see general assumptions.]|Model v1.4[2.2.3][Contains the result value for all findings; copied or derived from --ORRES in a standard format or in standard units.]",
                    "Document": "IG v3.2|Model v1.4",
                    "Section": "IG v3.2[6.3 LB]|Model v1.4[2.2.3]"
                  }
                ],
                "Origin": "SDTM and SDTMIG Conformance Rules",
                "Rule_Identifier": {
                  "Id": "CG0397",
                  "Version": "1"
                },
                "Version": "2.0"
              }
            ],
            "Version": "3.2"
          },
          {
            "Name": "SDTMIG",
            "References": [
              {
                "Citations": [
                  {
                    "Cited_Guidance": "IG v3.3[6.3.6][Contains the result value for all findings; copied or derived from --ORRES in a standard format or in standard units.]|Model v1.7[2.2.3] Contains the result value for all findings; copied or derived from LBORRES in a standard format or standard units. LBSTRESC should store all results or findings in character format; if results are numeric; they should also be stored in numeric format in LBSTRESN. For example; if a test has results 'NONE'; 'NEG'; and 'NEGATIVE' in LBORRES and these results effectively have the same meaning; they could be represented in standard format in LBSTRESC as 'NEGATIVE'. For other examples; see general assumptions.]",
                    "Document": "IG v3.3|Model v1.7",
                    "Section": "IG v3.3[6.3.6]|Model v1.7[2.2.3]"
                  }
                ],
                "Origin": "SDTM and SDTMIG Conformance Rules",
                "Rule_Identifier": {
                  "Id": "CG0397",
                  "Version": "1"
                },
                "Version": "2.0"
              }
            ],
            "Version": "3.3"
          },
          {
            "Name": "TIG",
            "References": [
              {
                "Citations": [
                  {
                    "Cited_Guidance": "The standardized result of the measurement, test, or examination in character format. --STRESC should store all results or findings in character format; if results are numeric, they should also be stored in numeric format in --STRESN. If various tests have results \"NONE\", \"NEG\", and \"NEGATIVE\" in --ORRES and these results effectively have the same meaning, they could be represented in standard format in --STRESC as \"NEGATIVE\"",
                    "Document": "SDTM v2.1",
                    "Section": "3.3.3 The Findings Observation Class"
                  },
                  {
                    "Cited_Guidance": "Values will be populated in --STRESC when --ORRES is populated. Numeric values represented in --STRESC will be assigned to --STRESN.",
                    "Document": "TIG v1.0",
                    "Item": "Table 3 Num 3",
                    "Section": "2.8.7.1"
                  }
                ],
                "Origin": "TIG Conformance Rules",
                "Rule_Identifier": {
                  "Id": "TIG0559",
                  "Version": "1"
                },
                "Version": "1.0"
              }
            ],
            "Substandard": "SDTM",
            "Version": "1.0"
          }
        ]
      }
    ],
    "Check": {
      "all": [
        {
          "any": [
            {
              "name": "--ORRES",
              "operator": "non_empty"
            },
            {
              "name": "--DRVFL",
              "operator": "equal_to",
              "value": "Y",
              "value_is_literal": true
            }
          ]
        },
        {
          "all": [
            {
              "name": "--STRESC",
              "operator": "empty"
            }
          ]
        }
      ]
    },
    "Core": {
      "Id": "CORE-000021",
      "Status": "Published",
      "Version": "1"
    },
    "Description": "Raise an error when either --ORRES is populated or --DRVFL = 'Y' but --STRESC is empty.",
    "Executability": "Fully Executable",
    "Outcome": {
      "Message": "--STRESC should be populated when either --ORRES is provided or --DRVFL = 'Y'.",
      "Output_Variables": [
        "--ORRES",
        "--DRVFL",
        "--STRESC"
      ]
    },
    "Rule_Type": "Record Data",
    "Scope": {
      "Classes": {
        "Include": [
          "FINDINGS"
        ]
      },
      "Domains": {
        "Include": [
          "ALL"
        ]
      },
      "Use_Case": "INDH, PROD"
    },
    "Sensitivity": "Record"
  },
  "CORE-000022": {
    "Authorities": [
      {
        "Organization": "CDISC",
        "Standards": [
          {
            "Name": "SDTMIG",
            "References": [
              {
                "Citations": [
                  {
                    "Cited_Guidance": "If categories of serious events are collected secondarily to a leading question, as in the example below, the values of the variables that capture reasons an event is considered serious (i.e., AESCAN, AESCONG, etc.) may be null. For example, if Serious is answered \"No\", the values for these variables maybe null. However, if Serious is answered \"Yes\", at least one of them will have a \"Y\" response.",
                    "Document": "SDTMIG v3.4",
                    "Item": "Assumption 6a",
                    "Section": "6.2.1"
                  }
                ],
                "Origin": "SDTM and SDTMIG Conformance Rules",
                "Rule_Identifier": {
                  "Id": "CG0041",
                  "Version": "1"
                },
                "Version": "2.0"
              }
            ],
            "Version": "3.4"
          },
          {
            "Name": "SDTMIG",
            "References": [
              {
                "Citations": [
                  {
                    "Cited_Guidance": "If categories of serious events are collected secondarily to a leading question, as in the example below, the values of the variables that capture reasons an event is considered serious (i.e., AESCAN, AESCONG, etc.) may be null. For example, if Serious is answered \"No\", the values for these variables maybe null. However, if Serious is answered \"Yes\", at least one of them will have a \"Y\" response.",
                    "Document": "SDTMIG v3.3",
                    "Item": "Assumption 6a",
                    "Section": "6.2.1"
                  }
                ],
                "Origin": "SDTM and SDTMIG Conformance Rules",
                "Rule_Identifier": {
                  "Id": "CG0041",
                  "Version": "1"
                },
                "Version": "2.0"
              }
            ],
            "Version": "3.3"
          },
          {
            "Name": "SDTMIG",
            "References": [
              {
                "Citations": [
                  {
                    "Cited_Guidance": "If categories of serious events are collected secondarily to a leading question, as in the example below, the values of the variables that capture reasons an event is considered serious (i.e., AESCAN, AESCONG, etc.) may be null. For example, if Serious is answered \"No\", the values for these variables may be null. However, if Serious is answered \"Yes\", at least one of them will have a \"Y\" response.",
                    "Document": "SDTMIG v3.2",
                    "Item": "Assumption 6a",
                    "Section": "6.2."
                  }
                ],
                "Origin": "SDTM and SDTMIG Conformance Rules",
                "Rule_Identifier": {
                  "Id": "CG0041",
                  "Version": "1"
                },
                "Version": "2.0"
              }
            ],
            "Version": "3.2"
          },
          {
            "Name": "TIG",
            "References": [
              {
                "Citations": [
                  {
                    "Cited_Guidance": "If categories of serious events are collected secondarily to a leading question the values of the variables that capture reasons an event is considered serious (e.g., AESCAN, AESCONG) may be null. On the other hand, if the CRF is structured so that a response is collected for each seriousness category, all category variables (e.g., AESDTH, AESHOSP) would be populated and AESER would be derived.",
                    "Document": "TIG 1.0",
                    "Item": "Assumption 7a",
                    "Section": "2.8.10.1"
                  }
                ],
                "Origin": "TIG Conformance Rules",
                "Rule_Identifier": {
                  "Id": "TIG0320",
                  "Version": "1"
                },
                "Version": "1.0"
              }
            ],
            "Substandard": "SDTM",
            "Version": "1.0"
          }
        ]
      }
    ],
    "Check": {
      "all": [
        {
          "any": [
            {
              "name": "AESCAN",
              "operator": "equal_to",
              "value": "Y",
              "value_is_literal": true
            },
            {
              "name": "AESCONG",
              "operator": "equal_to",
              "value": "Y",
              "value_is_literal": true
            },
            {
              "name": "AESDISAB",
              "operator": "equal_to",
              "value": "Y",
              "value_is_literal": true
            },
            {
              "name": "AESDTH",
              "operator": "equal_to",
              "value": "Y",
              "value_is_literal": true
            },
            {
              "name": "AESHOSP",
              "operator": "equal_to",
              "value": "Y",
              "value_is_literal": true
            },
            {
              "name": "AESLIFE",
              "operator": "equal_to",
              "value": "Y",
              "value_is_literal": true
            },
            {
              "name": "AESOD",
              "operator": "equal_to",
              "value": "Y",
              "value_is_literal": true
            },
            {
              "name": "AESMIE",
              "operator": "equal_to",
              "value": "Y",
              "value_is_literal": true
            }
          ]
        },
        {
          "name": "AESER",
          "operator": "not_equal_to",
          "value": "Y",
          "value_is_literal": true
        }
      ]
    },
    "Core": {
      "Id": "CORE-000022",
      "Status": "Published",
      "Version": "1"
    },
    "Description": "Raise an error when AESCAN, AESCONG, AESDISAB, AESDTH, AESHOSP, AESLIFE, AESOD or AESMIE = 'Y' but AESER = 'N' or is empty.",
    "Executability": "Fully Executable",
    "Outcome": {
      "Message": "At least one of the Seriousness criteria (AESCAN, AESCONG, AESDISAB, AESDTH, AESHOSP, AESLIFE, AESOD or AESMIE) = 'Y', but AESER = 'N' or empty.",
      "Output_Variables": [
        "AETERM",
        "AESTDTC",
        "AESER",
        "AESCAN",
        "AESCONG",
        "AESDISAB",
        "AESDTH",
        "AESHOSP",
        "AESLIFE",
        "AESOD",
        "AESMIE"
      ]
    },
    "Rule_Type": "Record Data",
    "Scope": {
      "Classes": {
        "Include": [
          "EVENTS"
        ]
      },
      "Domains": {
        "Include": [
          "AE"
        ]
      },
      "Use_Case": "INDH"
    },
    "Sensitivity": "Record"
  },
  "CORE-000023": {
    "Authorities": [
      {
        "Organization": "CDISC",
        "Standards": [
          {
            "Name": "SDTMIG",
            "References": [
              {
                "Citations": [
                  {
                    "Cited_Guidance": "Variable Qualifier of --TOXGR",
                    "Document": "Model v2.0",
                    "Item": "--TOX",
                    "Section": "Events"
                  },
                  {
                    "Cited_Guidance": "Variable Qualifier of --TOXGR",
                    "Document": "Model v2.0",
                    "Item": "--TOX",
                    "Section": "Findings"
                  }
                ],
                "Origin": "SDTM and SDTMIG Conformance Rules",
                "Rule_Identifier": {
                  "Id": "CG0084",
                  "Version": "2"
                },
                "Version": "2.0"
              }
            ],
            "Version": "3.4"
          },
          {
            "Name": "SDTMIG",
            "References": [
              {
                "Citations": [
                  {
                    "Cited_Guidance": "Variable Qualifier of --TOXGR",
                    "Document": "Model v1.7",
                    "Section": "2.2.2"
                  }
                ],
                "Origin": "SDTM and SDTMIG Conformance Rules",
                "Rule_Identifier": {
                  "Id": "CG0084",
                  "Version": "2"
                },
                "Version": "2.0"
              }
            ],
            "Version": "3.3"
          },
          {
            "Name": "SDTMIG",
            "References": [
              {
                "Citations": [
                  {
                    "Cited_Guidance": "Variable Qualifier of --TOXGR",
                    "Document": "Model v1.4",
                    "Section": "2.2.2"
                  }
                ],
                "Origin": "SDTM and SDTMIG Conformance Rules",
                "Rule_Identifier": {
                  "Id": "CG0084",
                  "Version": "2"
                },
                "Version": "2.0"
              }
            ],
            "Version": "3.2"
          },
          {
            "Name": "TIG",
            "References": [
              {
                "Citations": [
                  {
                    "Cited_Guidance": "Variable Qualifier of --TOXGR",
                    "Document": "SDTM v2.1",
                    "Item": "--TOX",
                    "Section": "Section 3.1.2 The Events Observation Class"
                  },
                  {
                    "Cited_Guidance": "Variable Qualifier of --TOXGR",
                    "Document": "SDTM v2.1",
                    "Item": "--TOX",
                    "Section": "Section 3.1.3 The Findings Observation Class"
                  }
                ],
                "Origin": "TIG Conformance Rules",
                "Rule_Identifier": {
                  "Id": "TIG0349",
                  "Version": "1"
                },
                "Version": "1.0"
              }
            ],
            "Substandard": "SDTM",
            "Version": "1.0"
          }
        ]
      }
    ],
    "Check": {
      "all": [
        {
          "name": "--TOXGR",
          "operator": "not_exists"
        },
        {
          "name": "--TOX",
          "operator": "exists"
        }
      ]
    },
    "Core": {
      "Id": "CORE-000023",
      "Status": "Published",
      "Version": "1"
    },
    "Description": "Raise an error when --TOXGR is not present in dataset, but --TOX is present.",
    "Executability": "Fully Executable",
    "Outcome": {
      "Message": "--TOX should not be present when --TOXGR is not present.",
      "Output_Variables": [
        "--TOX"
      ]
    },
    "Rule_Type": "Record Data",
    "Scope": {
      "Classes": {
        "Include": [
          "EVENTS",
          "FINDINGS"
        ]
      },
      "Domains": {
        "Include": [
          "ALL"
        ]
      },
      "Use_Case": "INDH, PROD"
    },
    "Sensitivity": "Dataset"
  },
  "CORE-000024": {
    "Authorities": [
      {
        "Organization": "CDISC",
        "Standards": [
          {
            "Name": "SDTMIG",
            "References": [
              {
                "Citations": [
                  {
                    "Cited_Guidance": "Events[--BODSYSCD][Variable Qualifier of BODSYS]",
                    "Document": "Model v2.0",
                    "Item": "--BODSYS",
                    "Section": "Events"
                  }
                ],
                "Origin": "SDTM and SDTMIG Conformance Rules",
                "Rule_Identifier": {
                  "Id": "CG0082",
                  "Version": "2"
                },
                "Version": "2.0"
              }
            ],
            "Version": "3.4"
          },
          {
            "Name": "SDTMIG",
            "References": [
              {
                "Citations": [
                  {
                    "Cited_Guidance": "Variable Qualifier of --BODSYS",
                    "Document": "Model v1.7",
                    "Section": "2.2.2"
                  }
                ],
                "Origin": "SDTM and SDTMIG Conformance Rules",
                "Rule_Identifier": {
                  "Id": "CG0082",
                  "Version": "2"
                },
                "Version": "2.0"
              }
            ],
            "Version": "3.3"
          },
          {
            "Name": "SDTMIG",
            "References": [
              {
                "Citations": [
                  {
                    "Cited_Guidance": "Variable Qualifier of --BODSYS",
                    "Document": "Model v1.4",
                    "Section": "2.2.2"
                  }
                ],
                "Origin": "SDTM and SDTMIG Conformance Rules",
                "Rule_Identifier": {
                  "Id": "CG0082",
                  "Version": "2"
                },
                "Version": "2.0"
              }
            ],
            "Version": "3.2"
          },
          {
            "Name": "TIG",
            "References": [
              {
                "Citations": [
                  {
                    "Cited_Guidance": "Events[--BODSYSCD][Variable Qualifier of BODSYS]",
                    "Document": "SDTM v2.1",
                    "Item": "--BODSYS",
                    "Section": "3.1.2 The Events Observation Class"
                  }
                ],
                "Origin": "TIG Conformance Rules",
                "Rule_Identifier": {
                  "Id": "TIG0347",
                  "Version": "1"
                },
                "Version": "1.0"
              }
            ],
            "Substandard": "SDTM",
            "Version": "1.0"
          }
        ]
      }
    ],
    "Check": {
      "all": [
        {
          "name": "--BODSYS",
          "operator": "non_empty"
        },
        {
          "any": [
            {
              "name": "--BDSYCD",
              "operator": "not_exists"
            },
            {
              "name": "--BDSYCD",
              "operator": "empty"
            }
          ]
        }
      ]
    },
    "Core": {
      "Id": "CORE-000024",
      "Status": "Published",
      "Version": "1"
    },
    "Description": "Raise an error when --BODSYS is not empty but --BDSYCD is empty or not present in dataset.",
    "Executability": "Fully Executable",
    "Outcome": {
      "Message": "--BODSYS is not empty but --BDSYCD is empty or not present in dataset.",
      "Output_Variables": [
        "--BODSYS",
        "--BDSYCD"
      ]
    },
    "Rule_Type": "Record Data",
    "Scope": {
      "Classes": {
        "Include": [
          "EVENTS"
        ]
      },
      "Domains": {
        "Include": [
          "ALL"
        ]
      },
      "Use_Case": "INDH"
    },
    "Sensitivity": "Record"
  },
  "CORE-000025": {
    "Authorities": [
      {
        "Organization": "CDISC",
        "Standards": [
          {
            "Name": "SDTMIG",
            "References": [
              {
                "Citations": [
                  {
                    "Cited_Guidance": "Response to Inclusion/Exclusion criterion result in standard format",
                    "Document": "IG v3.4",
                    "Item": "Specification",
                    "Section": "6.3.4"
                  }
                ],
                "Origin": "SDTM and SDTMIG Conformance Rules",
                "Rule_Identifier": {
                  "Id": "CG0177",
                  "Version": "1"
                },
                "Version": "2.0"
              }
            ],
            "Version": "3.4"
          },
          {
            "Name": "SDTMIG",
            "References": [
              {
                "Citations": [
                  {
                    "Cited_Guidance": "Response to Inclusion/Exclusion criterion result in standard format.",
                    "Document": "IG v3.2",
                    "Item": "Specification",
                    "Section": "6.3"
                  }
                ],
                "Origin": "SDTM and SDTMIG Conformance Rules",
                "Rule_Identifier": {
                  "Id": "CG0177",
                  "Version": "1"
                },
                "Version": "2.0"
              }
            ],
            "Version": "3.2"
          },
          {
            "Name": "SDTMIG",
            "References": [
              {
                "Citations": [
                  {
                    "Cited_Guidance": "Response to Inclusion/Exclusion criterion result in standard format.",
                    "Document": "IG v3.3",
                    "Item": "Specification",
                    "Section": "6.3.4"
                  }
                ],
                "Origin": "SDTM and SDTMIG Conformance Rules",
                "Rule_Identifier": {
                  "Id": "CG0177",
                  "Version": "1"
                },
                "Version": "2.0"
              }
            ],
            "Version": "3.3"
          },
          {
            "Name": "TIG",
            "References": [
              {
                "Citations": [
                  {
                    "Cited_Guidance": "Response to Inclusion/Exclusion criterion result in standard format.",
                    "Document": "TIG 1.0",
                    "Item": "Specification-IESTRESC",
                    "Section": "2.8.10.13"
                  }
                ],
                "Origin": "TIG Conformance Rules",
                "Rule_Identifier": {
                  "Id": "TIG0406",
                  "Version": "1"
                },
                "Version": "1.0"
              }
            ],
            "Substandard": "SDTM",
            "Version": "1.0"
          }
        ]
      }
    ],
    "Check": {
      "all": [
        {
          "name": "IESTRESC",
          "operator": "not_equal_to",
          "value": "IEORRES"
        }
      ]
    },
    "Core": {
      "Id": "CORE-000025",
      "Status": "Published",
      "Version": "1"
    },
    "Description": "Raise an error when IESTRESC is not equal to IEORRES",
    "Executability": "Fully Executable",
    "Outcome": {
      "Message": "IESTRESC is not equal to IEORRES.",
      "Output_Variables": [
        "IEORRES",
        "IESTRESC",
        "IETESTCD"
      ]
    },
    "Rule_Type": "Record Data",
    "Scope": {
      "Classes": {
        "Include": [
          "FINDINGS"
        ]
      },
      "Domains": {
        "Include": [
          "IE"
        ]
      },
      "Use_Case": "INDH"
    },
    "Sensitivity": "Record"
  },
  "CORE-000026": {
    "Authorities": [
      {
        "Organization": "CDISC",
        "Standards": [
          {
            "Name": "SDTMIG",
            "References": [
              {
                "Citations": [
                  {
                    "Cited_Guidance": "When time points are represented in SDTMIG domains, both --TPT and --TPTNUM must be used.",
                    "Document": "IG v3.3",
                    "Section": "4.4.10"
                  }
                ],
                "Origin": "SDTM and SDTMIG Conformance Rules",
                "Rule_Identifier": {
                  "Id": "CG0468",
                  "Version": "1"
                },
                "Version": "2.0"
              }
            ],
            "Version": "3.4"
          },
          {
            "Name": "SDTMIG",
            "References": [
              {
                "Citations": [
                  {
                    "Cited_Guidance": "When time points are used, --TPTNUM is expected. Within the context that defines uniqueness for a time point, which may include domain, visit, and reference time point, there must be a one-to-relationship between values of --TPT and --TPTNUM. in other words, if domain, visit, and reference time point uniquely identify subject data, then if two subjects have records with the same values of DOMAIN, VISITNUM, --TPTREF, and --TPTNUM, then these records may not have different time point descriptions in --TPT.",
                    "Document": "IG v3.2",
                    "Section": "4.1.4.10"
                  }
                ],
                "Origin": "SDTM and SDTMIG Conformance Rules",
                "Rule_Identifier": {
                  "Id": "CG0468",
                  "Version": "1"
                },
                "Version": "2.0"
              }
            ],
            "Version": "3.2"
          },
          {
            "Name": "SDTMIG",
            "References": [
              {
                "Citations": [
                  {
                    "Cited_Guidance": "When time points are used, --TPTNUM is expected. Within the context that defines uniqueness for a time point, which may include domain, visit, and reference time point, there must be a one-to-relationship between values of --TPT and --TPTNUM. in other words, if domain, visit, and reference time point uniquely identify subject data, then if two subjects have records with the same values of DOMAIN, VISITNUM, --TPTREF, and --TPTNUM, then these records may not have different time point descriptions in --TPT.",
                    "Document": "IG v3.3",
                    "Section": "4.4.10"
                  }
                ],
                "Origin": "SDTM and SDTMIG Conformance Rules",
                "Rule_Identifier": {
                  "Id": "CG0468",
                  "Version": "1"
                },
                "Version": "2.0"
              }
            ],
            "Version": "3.3"
          },
          {
            "Name": "TIG",
            "References": [
              {
                "Citations": [
                  {
                    "Cited_Guidance": "Time points will be represented using both --TPT and --TPTNUM. There will be a one-to-one relationship between values of --TPT and --TPTNUM.",
                    "Document": "TIG 1.0",
                    "Item": "Num 5",
                    "Section": "2.8.7.5"
                  }
                ],
                "Origin": "TIG Conformance Rules",
                "Rule_Identifier": {
                  "Id": "TIG0598",
                  "Version": "1"
                },
                "Version": "1.0"
              }
            ],
            "Substandard": "SDTM",
            "Version": "1.0"
          }
        ]
      }
    ],
    "Check": {
      "all": [
        {
          "name": "--TPT",
          "operator": "exists"
        },
        {
          "name": "--TPTNUM",
          "operator": "not_exists"
        }
      ]
    },
    "Core": {
      "Id": "CORE-000026",
      "Status": "Published",
      "Version": "1"
    },
    "Description": "Raise an error when --TPT is present in a dataset, but --TPTNUM is not present in the dataset.",
    "Executability": "Fully Executable",
    "Outcome": {
      "Message": "--TPTNUM must be present when --TPT is present.",
      "Output_Variables": [
        "--TPT",
        "--TPTNUM"
      ]
    },
    "Rule_Type": "Record Data",
    "Scope": {
      "Classes": {
        "Include": [
          "ALL"
        ]
      },
      "Domains": {
        "Include": [
          "ALL"
        ]
      },
      "Use_Case": "INDH, PROD"
    },
    "Sensitivity": "Dataset"
  },
  "CORE-000027": {
    "Authorities": [
      {
        "Organization": "CDISC",
        "Standards": [
          {
            "Name": "SDTMIG",
            "References": [
              {
                "Citations": [
                  {
                    "Cited_Guidance": "Specification[Either TEENRL or TEDUR must be present for each Element.]|Assumption 12[At least one of TEENRL and TEDUR must be populated. Both may be populated.]",
                    "Document": "IG v3.4",
                    "Item": "Specification|Assumption 12",
                    "Section": "7.2.2"
                  }
                ],
                "Origin": "SDTM and SDTMIG Conformance Rules",
                "Rule_Identifier": {
                  "Id": "CG0328",
                  "Version": "1"
                },
                "Version": "2.0"
              }
            ],
            "Version": "3.4"
          },
          {
            "Name": "SDTMIG",
            "References": [
              {
                "Citations": [
                  {
                    "Cited_Guidance": "Specification[Either TEENRL or TEDUR must be present for each Element.]|Assumption 12[At least one of TEENRL or TEDUR must be populated. Both may be populated.]",
                    "Document": "IG v3.3",
                    "Item": "Specification|Assumption 12",
                    "Section": "7.2.2"
                  }
                ],
                "Origin": "SDTM and SDTMIG Conformance Rules",
                "Rule_Identifier": {
                  "Id": "CG0328",
                  "Version": "1"
                },
                "Version": "2.0"
              }
            ],
            "Version": "3.3"
          },
          {
            "Name": "SDTMIG",
            "References": [
              {
                "Citations": [
                  {
                    "Cited_Guidance": "Specification[Either TEENRL or TEDUR must be present for each Element.]|Assumption 12[At least one of TEENRL or TEDUR must be populated. Both may be populated.]",
                    "Document": "IG v3.2",
                    "Item": "Specification|Assumption 12",
                    "Section": "7.2"
                  }
                ],
                "Origin": "SDTM and SDTMIG Conformance Rules",
                "Rule_Identifier": {
                  "Id": "CG0328",
                  "Version": "1"
                },
                "Version": "2.0"
              }
            ],
            "Version": "3.2"
          },
          {
            "Name": "TIG",
            "References": [
              {
                "Citations": [
                  {
                    "Cited_Guidance": "Either TEENRL or TEDUR must be present for each Element.",
                    "Document": "TIG 1.0",
                    "Item": "Specification TEENRL",
                    "Section": "2.8.10.28"
                  },
                  {
                    "Cited_Guidance": "At least one of TEENRL and TEDUR must be populated. Both may be populated.",
                    "Document": "TIG 1.0",
                    "Item": "Assumption 12",
                    "Section": "2.8.10.28"
                  }
                ],
                "Origin": "TIG Conformance Rules",
                "Rule_Identifier": {
                  "Id": "TIG0496",
                  "Version": "1"
                },
                "Version": "1.0"
              }
            ],
            "Substandard": "SDTM",
            "Version": "1.0"
          },
          {
            "Name": "SDTMIG",
            "References": [
              {
                "Citations": [
                  {
                    "Cited_Guidance": "Specification[Either TEENRL or TEDUR must be present for each Element.]|Assumption 12[At least one of TEENRL and TEDUR must be populated. Both may be populated.]",
                    "Document": "IG v3.4",
                    "Item": "Specification|Assumption 12",
                    "Section": "7.2.2"
                  }
                ],
                "Origin": "SDTM and SDTMIG Conformance Rules",
                "Rule_Identifier": {
                  "Id": "CG0329",
                  "Version": "1"
                },
                "Version": "2.0"
              }
            ],
            "Version": "3.4"
          },
          {
            "Name": "SDTMIG",
            "References": [
              {
                "Citations": [
                  {
                    "Cited_Guidance": "Specification[Either TEENRL or TEDUR must be present for each Element.]|Assumption 12[At least one of TEENRL or TEDUR must be populated. Both may be populated.]",
                    "Document": "IG v3.3",
                    "Item": "Specification|Assumption 12",
                    "Section": "7.2.2"
                  }
                ],
                "Origin": "SDTM and SDTMIG Conformance Rules",
                "Rule_Identifier": {
                  "Id": "CG0329",
                  "Version": "1"
                },
                "Version": "2.0"
              }
            ],
            "Version": "3.3"
          },
          {
            "Name": "SDTMIG",
            "References": [
              {
                "Citations": [
                  {
                    "Cited_Guidance": "Specification[Either TEENRL or TEDUR must be present for each Element.]|Assumption 12[At least one of TEENRL or TEDUR must be populated. Both may be populated.]",
                    "Document": "IG v3.2",
                    "Item": "Specification|Assumption 12",
                    "Section": "7.2"
                  }
                ],
                "Origin": "SDTM and SDTMIG Conformance Rules",
                "Rule_Identifier": {
                  "Id": "CG0329",
                  "Version": "1"
                },
                "Version": "2.0"
              }
            ],
            "Version": "3.2"
          },
          {
            "Name": "TIG",
            "References": [
              {
                "Citations": [
                  {
                    "Cited_Guidance": "Specification TEENRL [Either TEENRL or TEDUR must be present for each Element. |Assumption 12[At least one of TEENRL and TEDUR must be populated. Both may be populated.]",
                    "Document": "TIG 1.0",
                    "Item": "Specification TEENRL |Assumption 12",
                    "Section": "2.8.10.28"
                  }
                ],
                "Origin": "TIG Conformance Rules",
                "Rule_Identifier": {
                  "Id": "TIG0497",
                  "Version": "1"
                },
                "Version": "1.0"
              }
            ],
            "Substandard": "SDTM",
            "Version": "1.0"
          },
          {
            "Name": "TIG",
            "References": [
              {
                "Citations": [
                  {
                    "Cited_Guidance": "Either TEENRL or TEDUR must be present for each Element; both may be present.",
                    "Document": "TIG v1.0",
                    "Item": "TEENRL CDISC Notes",
                    "Section": "2.8.9.29"
                  }
                ],
                "Origin": "TIG Conformance Rules",
                "Rule_Identifier": {
                  "Id": "TIG0141",
                  "Version": "1"
                },
                "Version": "1.0"
              }
            ],
            "Substandard": "SEND",
            "Version": "1.0"
          },
          {
            "Name": "SENDIG",
            "References": [
              {
                "Citations": [
                  {
                    "Cited_Guidance": "Either TEENRL or TEDUR must be present for each Element; both may be present.",
                    "Document": "SENDIG v3.1.1",
                    "Item": "Specification",
                    "Section": "7.2.1"
                  }
                ],
                "Origin": "SEND Conformance Rules",
                "Rule_Identifier": {
                  "Id": "SEND214",
                  "Version": "1"
                },
                "Version": "5.0"
              }
            ],
            "Version": "3.1.1"
          },
          {
            "Name": "SENDIG",
            "References": [
              {
                "Citations": [
                  {
                    "Cited_Guidance": "Either TEENRL or TEDUR must be present for each Element; both may be present.",
                    "Document": "SENDIG v3.1",
                    "Item": "Specification",
                    "Section": "7.2.1"
                  }
                ],
                "Origin": "SEND Conformance Rules",
                "Rule_Identifier": {
                  "Id": "SEND214",
                  "Version": "1"
                },
                "Version": "5.0"
              }
            ],
            "Version": "3.1"
          },
          {
            "Name": "SENDIG",
            "References": [
              {
                "Citations": [
                  {
                    "Cited_Guidance": "Either TEENRL or TEDUR must be present for each Element; both may be present.",
                    "Document": "SENDIG v3.0",
                    "Item": "Specification",
                    "Section": "7.2.1 | 7.2.1.1"
                  }
                ],
                "Origin": "SEND Conformance Rules",
                "Rule_Identifier": {
                  "Id": "SEND214",
                  "Version": "1"
                },
                "Version": "5.0"
              }
            ],
            "Version": "3.0"
          },
          {
            "Name": "SENDIG-DART",
            "References": [
              {
                "Citations": [
                  {
                    "Cited_Guidance": "Either TEENRL or TEDUR must be present for each Element; both may be present.",
                    "Document": "SENDIG v3.1.1",
                    "Item": "Specification",
                    "Section": "7.2.1"
                  }
                ],
                "Origin": "SEND Conformance Rules",
                "Rule_Identifier": {
                  "Id": "SEND214",
                  "Version": "1"
                },
                "Version": "5.0"
              }
            ],
            "Version": "1.2"
          },
          {
            "Name": "SENDIG-DART",
            "References": [
              {
                "Citations": [
                  {
                    "Cited_Guidance": "Either TEENRL or TEDUR must be present for each Element; both may be present.",
                    "Document": "SENDIG v3.1",
                    "Item": "Specification",
                    "Section": "7.2.1"
                  }
                ],
                "Origin": "SEND Conformance Rules",
                "Rule_Identifier": {
                  "Id": "SEND214",
                  "Version": "1"
                },
                "Version": "5.0"
              }
            ],
            "Version": "1.1"
          },
          {
            "Name": "SENDIG-GENETOX",
            "References": [
              {
                "Citations": [
                  {
                    "Cited_Guidance": "Either TEENRL or TEDUR must be present for each Element; both may be present.",
                    "Document": "SENDIG v3.1.1",
                    "Item": "Specification",
                    "Section": "7.2.1"
                  }
                ],
                "Origin": "SEND Conformance Rules",
                "Rule_Identifier": {
                  "Id": "SEND214",
                  "Version": "1"
                },
                "Version": "5.0"
              }
            ],
            "Version": "1.0"
          }
        ]
      }
    ],
    "Check": {
      "all": [
        {
          "any": [
            {
              "name": "TEDUR",
              "operator": "empty"
            },
            {
              "name": "TEDUR",
              "operator": "not_exists"
            }
          ]
        },
        {
          "any": [
            {
              "name": "TEENRL",
              "operator": "empty"
            },
            {
              "name": "TEENRL",
              "operator": "not_exists"
            }
          ]
        }
      ]
    },
    "Core": {
      "Id": "CORE-000027",
      "Status": "Published",
      "Version": "1"
    },
    "Description": "Raise an error when neither TEENRL or TEDUR is present for an element.",
    "Executability": "Fully Executable",
    "Outcome": {
      "Message": "At least one of TEENRL and TEDUR must be populated.",
      "Output_Variables": [
        "TEDUR",
        "TEENRL"
      ]
    },
    "Rule_Type": "Record Data",
    "Scope": {
      "Classes": {
        "Include": [
          "TRIAL DESIGN"
        ]
      },
      "Domains": {
        "Include": [
          "TE"
        ]
      },
      "Use_Case": "INDH, NONCLIN"
    },
    "Sensitivity": "Record"
  },
  "CORE-000028": {
    "Authorities": [
      {
        "Organization": "CDISC",
        "Standards": [
          {
            "Name": "SDTMIG",
            "References": [
              {
                "Citations": [
                  {
                    "Cited_Guidance": "The interval of time between a planned time point and a fixed reference point, represented in a standardized character format. The fixed reference point is in --TPTREF.",
                    "Document": "Model v2.0",
                    "Item": "--ELTM",
                    "Section": "Timing"
                  }
                ],
                "Origin": "SDTM and SDTMIG Conformance Rules",
                "Rule_Identifier": {
                  "Id": "CG0008",
                  "Version": "1"
                },
                "Version": "2.0"
              }
            ],
            "Version": "3.4"
          },
          {
            "Name": "SDTMIG",
            "References": [
              {
                "Citations": [
                  {
                    "Cited_Guidance": "Planned Elapsed time relative to a planned fixed reference (--TPTREF) such as \"Previous Dose\" or \"Previous Meal\". This variable is useful where there are repetitive measures. Not a clock time or a date/time variable, but an interval. Format=ISO8601",
                    "Document": "Model v1.7",
                    "Item": "Table 2.2.5, --ELTM",
                    "Section": "2.2.5"
                  }
                ],
                "Origin": "SDTM and SDTMIG Conformance Rules",
                "Rule_Identifier": {
                  "Id": "CG0008",
                  "Version": "1"
                },
                "Version": "2.0"
              }
            ],
            "Version": "3.3"
          },
          {
            "Name": "SDTMIG",
            "References": [
              {
                "Citations": [
                  {
                    "Cited_Guidance": "Planned Elapsed time in ISO 8601 character format relative to a planned fixed reference (--TPTREF) such as \"Previous Dose\" or \"Previous Meal\".",
                    "Document": "Model v1.4",
                    "Item": "Table 2.2.5, --ELTM",
                    "Section": "2.2.5"
                  }
                ],
                "Origin": "SDTM and SDTMIG Conformance Rules",
                "Rule_Identifier": {
                  "Id": "CG0008",
                  "Version": "1"
                },
                "Version": "2.0"
              }
            ],
            "Version": "3.2"
          },
          {
            "Name": "TIG",
            "References": [
              {
                "Citations": [
                  {
                    "Cited_Guidance": "When instances of an activity are scheduled at planned time intervals relative to a fixed reference point (e.g., an exposure), the following timing variables will be used: --TPTREF- Represents a description of the fixed reference point from which the planned observation will be made.-ELTM represents the planned elapsed time from the fixed timepoint reference to the planned observation.",
                    "Document": "TIG 1.0",
                    "Item": "Table 2 Num 3",
                    "Section": "2.8.7.6"
                  }
                ],
                "Origin": "TIG Conformance Rules",
                "Rule_Identifier": {
                  "Id": "TIG0293",
                  "Version": "1"
                },
                "Version": "1.0"
              }
            ],
            "Substandard": "SDTM",
            "Version": "1.0"
          }
        ]
      }
    ],
    "Check": {
      "all": [
        {
          "name": "--TPTREF",
          "operator": "empty"
        },
        {
          "name": "--ELTM",
          "operator": "non_empty"
        }
      ]
    },
    "Core": {
      "Id": "CORE-000028",
      "Status": "Published",
      "Version": "1"
    },
    "Description": "Raise an error when --TPTREF is not populated, but --ELTM is populated.",
    "Executability": "Fully Executable",
    "Outcome": {
      "Message": "--TPTREF is not populated but --ELTM is populated.",
      "Output_Variables": [
        "--TPT",
        "--TPTREF",
        "--ELTM"
      ]
    },
    "Rule_Type": "Record Data",
    "Scope": {
      "Classes": {
        "Include": [
          "ALL"
        ]
      },
      "Domains": {
        "Include": [
          "ALL"
        ]
      },
      "Use_Case": "INDH, PROD"
    },
    "Sensitivity": "Record"
  },
  "CORE-000029": {
    "Authorities": [
      {
        "Organization": "CDISC",
        "Standards": [
          {
            "Name": "SDTMIG",
            "References": [
              {
                "Citations": [
                  {
                    "Cited_Guidance": "When time points are represented in SDTMIG domains, both --TPT and --TPTNUM must be used.",
                    "Document": "IG v3.4",
                    "Section": "4.4.10"
                  }
                ],
                "Origin": "SDTM and SDTMIG Conformance Rules",
                "Rule_Identifier": {
                  "Id": "CG0661",
                  "Version": "1"
                },
                "Version": "2.0"
              }
            ],
            "Version": "3.4"
          },
          {
            "Name": "TIG",
            "References": [
              {
                "Citations": [
                  {
                    "Cited_Guidance": "TIG 1.0",
                    "Document": "Time points will be represented using both --TPT and --TPTNUM. There will be a one-to-one relationship between values of --TPT and --TPTNUM.",
                    "Item": "Planned Timing table NUM 5",
                    "Section": "2.8.7.5"
                  }
                ],
                "Origin": "TIG Conformance Rules",
                "Rule_Identifier": {
                  "Id": "TIG0697",
                  "Version": "1"
                },
                "Version": "1.0"
              }
            ],
            "Substandard": "SDTM",
            "Version": "1.0"
          }
        ]
      }
    ],
    "Check": {
      "all": [
        {
          "name": "--TPTNUM",
          "operator": "exists"
        },
        {
          "name": "--TPT",
          "operator": "not_exists"
        }
      ]
    },
    "Core": {
      "Id": "CORE-000029",
      "Status": "Published",
      "Version": "1"
    },
    "Description": "Raise an error when --TPTNUM is present in a dataset, but --TPT is not present in the dataset.",
    "Executability": "Fully Executable",
    "Outcome": {
      "Message": "--TPT must be present when --TPTNUM is present.",
      "Output_Variables": [
        "--TPTNUM",
        "--TPT"
      ]
    },
    "Rule_Type": "Record Data",
    "Scope": {
      "Classes": {
        "Include": [
          "ALL"
        ]
      },
      "Domains": {
        "Include": [
          "ALL"
        ]
      },
      "Use_Case": "INDH, PROD"
    },
    "Sensitivity": "Dataset"
  },
  "CORE-000030": {
    "Authorities": [
      {
        "Organization": "CDISC",
        "Standards": [
          {
            "Name": "SDTMIG",
            "References": [
              {
                "Citations": [
                  {
                    "Cited_Guidance": "--PRESP[An indication that the event or intervention was prospectively stated or detailed on the CRF.]|--OCCUR[An indication as to whether a prespecified event or intervention has occurred.]",
                    "Document": "Model v2.0",
                    "Section": "Events|Interventions"
                  }
                ],
                "Origin": "SDTM and SDTMIG Conformance Rules",
                "Rule_Identifier": {
                  "Id": "CG0053",
                  "Version": "1"
                },
                "Version": "2.0"
              }
            ],
            "Version": "3.4"
          },
          {
            "Name": "SDTMIG",
            "References": [
              {
                "Citations": [
                  {
                    "Cited_Guidance": "(--PRESP/Events) Used to indicate whether the event describe by --TERM was pre-specified on a CRF. Value is Y for pre-specified events, null for spontaneously reported events. (--PRESP/Interventions) Used when a specific intervention is pre-specified on a CRF. Values should be \"Y\" or null. (--REASND) Used in conjunction with --STAT when value is NOT DONE",
                    "Document": "Model v1.7",
                    "Section": "2.2.1 (Interventions )|2.2.2 (Events)"
                  }
                ],
                "Origin": "SDTM and SDTMIG Conformance Rules",
                "Rule_Identifier": {
                  "Id": "CG0053",
                  "Version": "1"
                },
                "Version": "2.0"
              }
            ],
            "Version": "3.3"
          },
          {
            "Name": "SDTMIG",
            "References": [
              {
                "Citations": [
                  {
                    "Cited_Guidance": "(--PRESP/Events) Used to indicate whether the event describe by --TERM was pre-specified on a CRF. Value is Y for pre-specified events, null for spontaneously reported events. (--PRESP/Interventions) Used when a specific intervention is pre-specified on a CRF. Values should be \"Y\" or null. (--REASND) Used in conjunction with --STAT when value is NOT DONE",
                    "Document": "Model v1.4",
                    "Section": "2.2.1 (Interventions )|2.2.2 (Events)"
                  }
                ],
                "Origin": "SDTM and SDTMIG Conformance Rules",
                "Rule_Identifier": {
                  "Id": "CG0053",
                  "Version": "1"
                },
                "Version": "2.0"
              }
            ],
            "Version": "3.2"
          },
          {
            "Name": "TIG",
            "References": [
              {
                "Citations": [
                  {
                    "Cited_Guidance": "--PRESP[An indication that the event or intervention was prospectively stated or detailed on the CRF.]|--OCCUR[An indication as to whether a prespecified event or intervention has occurred.]",
                    "Document": "SDTM v2.1",
                    "Item": "--PRESP|--STAT",
                    "Section": "3.1.2 The Events Observation Class|3.1.2 The Interventions Observation Class"
                  }
                ],
                "Origin": "TIG Conformance Rules",
                "Rule_Identifier": {
                  "Id": "TIG0329",
                  "Version": "1"
                },
                "Version": "1.0"
              }
            ],
            "Substandard": "SDTM",
            "Version": "1.0"
          }
        ]
      }
    ],
    "Check": {
      "all": [
        {
          "name": "--PRESP",
          "operator": "not_exists"
        },
        {
          "name": "--REASND",
          "operator": "exists"
        }
      ]
    },
    "Core": {
      "Id": "CORE-000030",
      "Status": "Published",
      "Version": "1"
    },
    "Description": "Raise an error when --PRESP is not present in the dataset, but --REASND is present. not present in dataset.",
    "Executability": "Fully Executable",
    "Outcome": {
      "Message": "--REASND must not be present in the dataset when --PRESP is not present.",
      "Output_Variables": [
        "--PRESP",
        "--REASND"
      ]
    },
    "Rule_Type": "Record Data",
    "Scope": {
      "Classes": {
        "Include": [
          "EVENTS",
          "INTERVENTIONS"
        ]
      },
      "Domains": {
        "Exclude": [
          "DS",
          "DV",
          "EX"
        ]
      },
      "Use_Case": "INDH, PROD"
    },
    "Sensitivity": "Dataset"
  },
  "CORE-000031": {
    "Authorities": [
      {
        "Organization": "CDISC",
        "Standards": [
          {
            "Name": "SDTMIG",
            "References": [
              {
                "Citations": [
                  {
                    "Cited_Guidance": "--EVAL and --EVALID must not be used to model QRS data in SDTM.",
                    "Document": "SDTMIG v3.4",
                    "Item": "Assumption 8",
                    "Section": "6.3.9.1"
                  },
                  {
                    "Cited_Guidance": "--EVAL and --EVALID must not be used to model QRS data in SDTM.",
                    "Document": "SDTMIG v3.4",
                    "Item": "Assumption 8",
                    "Section": "6.3.9.2"
                  },
                  {
                    "Cited_Guidance": "--EVAL and --EVALID must not be used to model QRS data in SDTM.",
                    "Document": "SDTMIG v3.4",
                    "Item": "Assumption 8",
                    "Section": "6.3.9.3.2"
                  }
                ],
                "Origin": "SDTM and SDTMIG Conformance Rules",
                "Rule_Identifier": {
                  "Id": "CG0659",
                  "Version": "1"
                },
                "Version": "2.0"
              }
            ],
            "Version": "3.4"
          }
        ]
      }
    ],
    "Check": {
      "any": [
        {
          "name": "QSEVAL",
          "operator": "exists"
        },
        {
          "name": "FTEVAL",
          "operator": "exists"
        }
      ]
    },
    "Core": {
      "Id": "CORE-000031",
      "Status": "Published",
      "Version": "1"
    },
    "Description": "--EVAL must not be used to model QRS data.   This includes the 'QS' and 'FT' domains as well as the 'RS' domain when the record pertains to a Clinical Classification Use Case). This rule has been fully executed for the QS and FT domains only.",
    "Executability": "Fully Executable",
    "Outcome": {
      "Message": "--EVAL is present.  --EVAL must not be used to model QRS data."
    },
    "Rule_Type": "Record Data",
    "Scope": {
      "Classes": {
        "Include": [
          "FINDINGS"
        ]
      },
      "Domains": {
        "Include": [
          "QS",
          "FT",
          "RS"
        ]
      }
    },
    "Sensitivity": "Dataset"
  },
  "CORE-000032": {
    "Authorities": [
      {
        "Organization": "CDISC",
        "Standards": [
          {
            "Name": "SDTMIG",
            "References": [
              {
                "Citations": [
                  {
                    "Cited_Guidance": "--EVAL and --EVALID must not be used to model QRS data in SDTM.",
                    "Document": "SDTMIG v3.4",
                    "Item": "Assumption 8",
                    "Section": "6.3.9.1"
                  },
                  {
                    "Cited_Guidance": "--EVAL and --EVALID must not be used to model QRS data in SDTM.",
                    "Document": "SDTMIG v3.4",
                    "Item": "Assumption 8",
                    "Section": "6.3.9.2"
                  },
                  {
                    "Cited_Guidance": "--EVAL and --EVALID must not be used to model QRS data in SDTM.",
                    "Document": "SDTMIG v3.4",
                    "Item": "Assumption 8",
                    "Section": "6.3.9.3.2"
                  }
                ],
                "Origin": "SDTM and SDTMIG Conformance Rules",
                "Rule_Identifier": {
                  "Id": "CG0660",
                  "Version": "1"
                },
                "Version": "2.0"
              }
            ],
            "Version": "3.4"
          }
        ]
      }
    ],
    "Check": {
      "any": [
        {
          "name": "QSEVALID",
          "operator": "exists"
        },
        {
          "name": "FTEVALID",
          "operator": "exists"
        }
      ]
    },
    "Core": {
      "Id": "CORE-000032",
      "Status": "Published",
      "Version": "1"
    },
    "Description": "--EVALID must not be used to model QRS data.   This includes the 'QS' and 'FT' domains as well as the 'RS' domain when the record pertains to a Clinical Classification Use Case). This rule has been fully executed for the QS and FT domains only.",
    "Executability": "Fully Executable",
    "Outcome": {
      "Message": "--EVALID is present.  --EVALID must not be used to model QRS data."
    },
    "Rule_Type": "Record Data",
    "Scope": {
      "Classes": {
        "Include": [
          "FINDINGS"
        ]
      },
      "Domains": {
        "Include": [
          "QS",
          "FT",
          "RS"
        ]
      }
    },
    "Sensitivity": "Dataset"
  },
  "CORE-000033": {
    "Authorities": [
      {
        "Organization": "CDISC",
        "Standards": [
          {
            "Name": "SDTMIG",
            "References": [
              {
                "Citations": [
                  {
                    "Cited_Guidance": "When DSTERM = \"COMPLETED\", DSDECOD is the term \"COMPLETED\" from the controlled terminology codelist NCOMPLT.",
                    "Document": "IG v3.4",
                    "Item": "Assumption 3.b.i.",
                    "Section": "6.2.3"
                  }
                ],
                "Origin": "SDTM and SDTMIG Conformance Rules",
                "Rule_Identifier": {
                  "Id": "CG0065",
                  "Version": "1"
                },
                "Version": "2.0"
              }
            ],
            "Version": "3.4"
          },
          {
            "Name": "SDTMIG",
            "References": [
              {
                "Citations": [
                  {
                    "Cited_Guidance": "b. When DSTERM = 'COMPLETED', DSDECOD = 'COMPLETED'.",
                    "Document": "IG v3.3",
                    "Item": "Assumption 3b",
                    "Section": "6.2.3"
                  }
                ],
                "Origin": "SDTM and SDTMIG Conformance Rules",
                "Rule_Identifier": {
                  "Id": "CG0065",
                  "Version": "1"
                },
                "Version": "2.0"
              }
            ],
            "Version": "3.3"
          },
          {
            "Name": "SDTMIG",
            "References": [
              {
                "Citations": [
                  {
                    "Cited_Guidance": "b. When DSTERM = 'COMPLETED', DSDECOD = 'COMPLETED'.",
                    "Document": "IG v3.2",
                    "Item": "Assumption 3b",
                    "Section": "6.2"
                  }
                ],
                "Origin": "SDTM and SDTMIG Conformance Rules",
                "Rule_Identifier": {
                  "Id": "CG0065",
                  "Version": "1"
                },
                "Version": "2.0"
              }
            ],
            "Version": "3.2"
          },
          {
            "Name": "TIG",
            "References": [
              {
                "Citations": [
                  {
                    "Cited_Guidance": "When DSTERM = \"COMPLETED\", DSDECOD is the term \"COMPLETED\" from the Controlled Terminology codelist NCOMPLT.",
                    "Document": "TIG 1.0",
                    "Item": "Assumption 3.b.i.",
                    "Section": "2.8.10.8"
                  }
                ],
                "Origin": "TIG Conformance Rules",
                "Rule_Identifier": {
                  "Id": "TIG0337",
                  "Version": "1"
                },
                "Version": "1.0"
              }
            ],
            "Substandard": "SDTM",
            "Version": "1.0"
          }
        ]
      }
    ],
    "Check": {
      "all": [
        {
          "name": "DSTERM",
          "operator": "equal_to",
          "value": "COMPLETED",
          "value_is_literal": true
        },
        {
          "name": "DSDECOD",
          "operator": "not_equal_to",
          "value": "COMPLETED",
          "value_is_literal": true
        }
      ]
    },
    "Core": {
      "Id": "CORE-000033",
      "Status": "Published",
      "Version": "1"
    },
    "Description": "Raise an error when DSTERM = 'COMPLETED' and DSDECOD is not equal to 'COMPLETED'.",
    "Executability": "Fully Executable",
    "Outcome": {
      "Message": "DSDECOD is not equal to 'COMPLETED' when DSTERM equals 'COMPLETED'.",
      "Output_Variables": [
        "DSTERM",
        "DSDECOD"
      ]
    },
    "Rule_Type": "Record Data",
    "Scope": {
      "Classes": {
        "Include": [
          "EVENTS"
        ]
      },
      "Domains": {
        "Include": [
          "DS"
        ]
      },
      "Use_Case": "INDH"
    },
    "Sensitivity": "Record"
  },
  "CORE-000034": {
    "Authorities": [
      {
        "Organization": "CDISC",
        "Standards": [
          {
            "Name": "SDTMIG",
            "References": [
              {
                "Citations": [
                  {
                    "Cited_Guidance": "Date/time of death for any subject who died, in ISO 8601 format. Should represent the date/time that is captured in the clinical-trial database.",
                    "Document": "SDTMIG v3.4",
                    "Item": "Specification",
                    "Section": "5.2"
                  }
                ],
                "Origin": "SDTM and SDTMIG Conformance Rules",
                "Rule_Identifier": {
                  "Id": "CG0069",
                  "Version": "1"
                },
                "Version": "2.0"
              }
            ],
            "Version": "3.4"
          },
          {
            "Name": "SDTMIG",
            "References": [
              {
                "Citations": [
                  {
                    "Cited_Guidance": "Date/time of death for any subject who died, in ISO 8601 format. Should represent the date/time that is captured in the clinical-trial database.",
                    "Document": "SDTMIG v3.3",
                    "Item": "Specification",
                    "Section": "5.2"
                  }
                ],
                "Origin": "SDTM and SDTMIG Conformance Rules",
                "Rule_Identifier": {
                  "Id": "CG0069",
                  "Version": "1"
                },
                "Version": "2.0"
              }
            ],
            "Version": "3.3"
          },
          {
            "Name": "SDTMIG",
            "References": [
              {
                "Citations": [
                  {
                    "Cited_Guidance": "Date/time of death for any subject who died, in ISO 8601 format. Should represent the date/time that is captured in the clinical-trial database.",
                    "Document": "SDTMIG v3.2",
                    "Item": "Specification",
                    "Section": "5"
                  }
                ],
                "Origin": "SDTM and SDTMIG Conformance Rules",
                "Rule_Identifier": {
                  "Id": "CG0069",
                  "Version": "1"
                },
                "Version": "2.0"
              }
            ],
            "Version": "3.2"
          },
          {
            "Name": "TIG",
            "References": [
              {
                "Citations": [
                  {
                    "Cited_Guidance": "Date/time of death for any subject who died, in ISO 8601 format. Should represent the date/time that is captured in the clinical-trial database.",
                    "Document": "TIG 1.0",
                    "Item": "Specification",
                    "Section": "2.8.10.4"
                  }
                ],
                "Origin": "TIG Conformance Rules",
                "Rule_Identifier": {
                  "Id": "TIG0339",
                  "Version": "1"
                },
                "Version": "1.0"
              }
            ],
            "Substandard": "SDTM",
            "Version": "1.0"
          }
        ]
      }
    ],
    "Check": {
      "all": [
        {
          "name": "DSDECOD",
          "operator": "equal_to",
          "value": "DEATH",
          "value_is_literal": true
        },
        {
          "name": "DSSTDTC",
          "operator": "date_not_equal_to",
          "value": "DTHDTC"
        }
      ]
    },
    "Core": {
      "Id": "CORE-000034",
      "Status": "Published",
      "Version": "1"
    },
    "Description": "Raise an error when DSDECOD equals 'DEATH' but DSSTDTC is not equal to DTHDTC in DM dataset.",
    "Executability": "Fully Executable",
    "Match_Datasets": [
      {
        "Keys": [
          "USUBJID"
        ],
        "Name": "DM"
      }
    ],
    "Outcome": {
      "Message": "DSDECOD equals 'DEATH' but DSSTDTC is not equal to DTHDTC in DM dataset.",
      "Output_Variables": [
        "DSDECOD",
        "DSSTDTC",
        "DTHDTC"
      ]
    },
    "Rule_Type": "Record Data",
    "Scope": {
      "Classes": {
        "Include": [
          "EVENTS"
        ]
      },
      "Domains": {
        "Include": [
          "DS"
        ]
      },
      "Use_Case": "INDH"
    },
    "Sensitivity": "Record"
  },
  "CORE-000035": {
    "Authorities": [
      {
        "Organization": "CDISC",
        "Standards": [
          {
            "Name": "SDTMIG",
            "References": [
              {
                "Citations": [
                  {
                    "Cited_Guidance": "VISITDY is the Planned Study Day of a visit. It should not be populated for unplanned visits.",
                    "Document": "IG v3.4",
                    "Item": "Assumption 7",
                    "Section": "5.5"
                  }
                ],
                "Origin": "SDTM and SDTMIG Conformance Rules",
                "Rule_Identifier": {
                  "Id": "CG0658",
                  "Version": "1"
                },
                "Version": "2.0"
              }
            ],
            "Version": "3.4"
          },
          {
            "Name": "TIG",
            "References": [
              {
                "Citations": [
                  {
                    "Cited_Guidance": "The planned study day of visit variable (VISITDY) should not be populated for unplanned visits.",
                    "Document": "TIG 1.0",
                    "Item": "Assumption 8",
                    "Section": "2.8.10.25"
                  }
                ],
                "Origin": "TIG Conformance Rules",
                "Rule_Identifier": {
                  "Id": "TIG0696",
                  "Version": "1"
                },
                "Version": "1.0"
              }
            ],
            "Substandard": "SDTM",
            "Version": "1.0"
          }
        ]
      }
    ],
    "Check": {
      "all": [
        {
          "name": "SVPRESP",
          "operator": "empty"
        },
        {
          "name": "VISITDY",
          "operator": "non_empty"
        }
      ]
    },
    "Core": {
      "Id": "CORE-000035",
      "Status": "Published",
      "Version": "1"
    },
    "Description": "Raise an error when a visit is unplanned (SVPRESP is null) but VISITDY is populated.",
    "Executability": "Fully Executable",
    "Outcome": {
      "Message": "Visit is unplanned but VISITDY is populated.",
      "Output_Variables": [
        "VISITNUM",
        "VISIT",
        "VISITDY",
        "SVPRESP"
      ]
    },
    "Rule_Type": "Record Data",
    "Scope": {
      "Classes": {
        "Include": [
          "SPECIAL PURPOSE"
        ]
      },
      "Domains": {
        "Include": [
          "SV"
        ]
      },
      "Use_Case": "INDH"
    },
    "Sensitivity": "Record"
  },
  "CORE-000036": {
    "Authorities": [
      {
        "Organization": "CDISC",
        "Standards": [
          {
            "Name": "SDTMIG",
            "References": [
              {
                "Citations": [
                  {
                    "Cited_Guidance": "Value is \"Y\" for planned visits, null for unplanned visits.",
                    "Document": "SDTMIG v3.4",
                    "Item": "SVPRESP",
                    "Section": "5.5"
                  },
                  {
                    "Cited_Guidance": "The values of VISITNUM in the TV dataset are the valid values of VISITNUM for planned Visits.  Any values of VISITNUM that appear in subject-level datasets that are not in the TV dataset are assumed to correspond to unplanned Visits....  If a subject-level dataset includes both VISITNUM and VISIT, then records that include values of VISITNUM that appear in the TV dataset should also include the corresponding values of VISIT from the TV dataset.",
                    "Document": "SDTMIG v3.4",
                    "Item": "Assumption 6",
                    "Section": "7.3.1"
                  }
                ],
                "Origin": "SDTM and SDTMIG Conformance Rules",
                "Rule_Identifier": {
                  "Id": "CG0657",
                  "Version": "1"
                },
                "Version": "2.0"
              }
            ],
            "Version": "3.4"
          },
          {
            "Name": "TIG",
            "References": [
              {
                "Citations": [
                  {
                    "Cited_Guidance": "2.8.10.25 [Specification][SVPRESP] [Value is \"Y\" for planned visits, null for unplanned visits.]|Section 10.8.33[Assumption 6] [The values of VISITNUM in the TV dataset are the valid values of VISITNUM for planned Visits. Any values of VISITNUM that appear in subject-level datasets that are not in the TV dataset are assumed to correspond to unplanned Visits.  If a subject-level dataset includes both VISITNUM and VISIT, then records that include values of VISITNUM that appear in the TV dataset should also include the corresponding values of VISIT from the TV dataset.]",
                    "Document": "TIG 1.0",
                    "Item": "Specification",
                    "Section": "2.8.10.25|2.8.10.33"
                  }
                ],
                "Origin": "TIG Conformance Rules",
                "Rule_Identifier": {
                  "Id": "TIG0695",
                  "Version": "1"
                },
                "Version": "1.0"
              }
            ],
            "Substandard": "SDTM",
            "Version": "1.0"
          }
        ]
      }
    ],
    "Check": {
      "all": [
        {
          "name": "SVPRESP",
          "operator": "equal_to",
          "value": "Y",
          "value_is_literal": true
        },
        {
          "name": "VISIT",
          "operator": "is_not_contained_by",
          "value": "$tv_visit"
        }
      ]
    },
    "Core": {
      "Id": "CORE-000036",
      "Status": "Published",
      "Version": "1"
    },
    "Description": "Raise an error when a visit is planned (SVPRESP = 'Y') but VISIT value does not match any VISIT value in the TV dataset.",
    "Executability": "Fully Executable",
    "Operations": [
      {
        "domain": "TV",
        "id": "$tv_visit",
        "name": "VISIT",
        "operator": "distinct"
      }
    ],
    "Outcome": {
      "Message": "VISIT value for planned visit does not match any VISIT value in the TV dataset.",
      "Output_Variables": [
        "VISITNUM",
        "VISIT",
        "SVPRESP"
      ]
    },
    "Rule_Type": "Record Data",
    "Scope": {
      "Classes": {
        "Include": [
          "SPECIAL PURPOSE"
        ]
      },
      "Domains": {
        "Include": [
          "SV"
        ]
      },
      "Use_Case": "INDH"
    },
    "Sensitivity": "Record"
  },
  "CORE-000037": {
    "Authorities": [
      {
        "Organization": "CDISC",
        "Standards": [
          {
            "Name": "SDTMIG",
            "References": [
              {
                "Citations": [
                  {
                    "Cited_Guidance": "Subject Visits[SVPRESP][Values should be \"Y\" or null.]",
                    "Document": "Model v2.0",
                    "Item": "SVPRESP",
                    "Section": "Subject Visits"
                  }
                ],
                "Origin": "SDTM and SDTMIG Conformance Rules",
                "Rule_Identifier": {
                  "Id": "CG0653",
                  "Version": "1"
                },
                "Version": "2.0"
              }
            ],
            "Version": "3.4"
          },
          {
            "Name": "TIG",
            "References": [
              {
                "Citations": [
                  {
                    "Cited_Guidance": "Subject Visits[SVPRESP][Values should be \"Y\" or null.]",
                    "Document": "SDTM v2.1",
                    "Item": "SVPRESP",
                    "Section": "3.2.3.3 Subject Visits"
                  }
                ],
                "Origin": "TIG Conformance Rules",
                "Rule_Identifier": {
                  "Id": "TIG0691",
                  "Version": "1"
                },
                "Version": "1.0"
              }
            ],
            "Substandard": "SDTM",
            "Version": "1.0"
          }
        ]
      }
    ],
    "Check": {
      "all": [
        {
          "name": "SVPRESP",
          "operator": "not_equal_to",
          "value": "Y",
          "value_is_literal": true
        },
        {
          "name": "SVPRESP",
          "operator": "non_empty"
        }
      ]
    },
    "Core": {
      "Id": "CORE-000037",
      "Status": "Published",
      "Version": "1"
    },
    "Description": "Raise an error when SVPRESP is not null or equal to 'Y'.",
    "Executability": "Fully Executable",
    "Outcome": {
      "Message": "SVPRESP must be 'Y' or null."
    },
    "Rule_Type": "Record Data",
    "Scope": {
      "Classes": {
        "Include": [
          "SPECIAL PURPOSE"
        ]
      },
      "Domains": {
        "Include": [
          "SV"
        ]
      },
      "Use_Case": "INDH"
    },
    "Sensitivity": "Record"
  },
  "CORE-000038": {
    "Authorities": [
      {
        "Organization": "CDISC",
        "Standards": [
          {
            "Name": "SDTMIG",
            "References": [
              {
                "Citations": [
                  {
                    "Cited_Guidance": "An indication that the visit is planned. Values should be \"Y\" or null.",
                    "Document": "Model v2.0",
                    "Item": "SVPRESP",
                    "Section": "Subject Visits"
                  },
                  {
                    "Cited_Guidance": "An indication as to whether a prespecified (planned) visit has occurred.",
                    "Document": "Model v2.0",
                    "Item": "SVOCCUR",
                    "Section": "Subject Visits"
                  }
                ],
                "Origin": "SDTM and SDTMIG Conformance Rules",
                "Rule_Identifier": {
                  "Id": "CG0654",
                  "Version": "1"
                },
                "Version": "2.0"
              }
            ],
            "Version": "3.4"
          },
          {
            "Name": "TIG",
            "References": [
              {
                "Citations": [
                  {
                    "Cited_Guidance": "Subject Visits[SVPRESP][An indication that the visit is planned. Values should be \"Y\" or null.]",
                    "Document": "SDTM v2.1",
                    "Item": "SVPRESP",
                    "Section": "3.2.3.3 Subject Visits"
                  },
                  {
                    "Cited_Guidance": "Subject Visits[SVOCCUR][An indication as to whether a prespecified (planned) visit has occurred.]",
                    "Document": "SDTM v2.1",
                    "Item": "SVOCCUR",
                    "Section": "3.2.3.3 Subject Visits"
                  }
                ],
                "Origin": "TIG Conformance Rules",
                "Rule_Identifier": {
                  "Id": "TIG0692",
                  "Version": "1"
                },
                "Version": "1.0"
              }
            ],
            "Substandard": "SDTM",
            "Version": "1.0"
          }
        ]
      }
    ],
    "Check": {
      "all": [
        {
          "name": "SVOCCUR",
          "operator": "non_empty"
        },
        {
          "name": "SVPRESP",
          "operator": "not_equal_to",
          "value": "Y",
          "value_is_literal": true
        }
      ]
    },
    "Core": {
      "Id": "CORE-000038",
      "Status": "Published",
      "Version": "1"
    },
    "Description": "Raise an error when SVOCCUR is not null and SVPRESP is not equal to 'Y'.",
    "Executability": "Fully Executable",
    "Outcome": {
      "Message": "SVOCCUR is populated but SVPRESP is not equal to 'Y'.",
      "Output_Variables": [
        "SVPRESP",
        "SVOCCUR"
      ]
    },
    "Rule_Type": "Record Data",
    "Scope": {
      "Classes": {
        "Include": [
          "SPECIAL PURPOSE"
        ]
      },
      "Domains": {
        "Include": [
          "SV"
        ]
      },
      "Use_Case": "INDH"
    },
    "Sensitivity": "Record"
  },
  "CORE-000039": {
    "Authorities": [
      {
        "Organization": "CDISC",
        "Standards": [
          {
            "Name": "SDTMIG",
            "References": [
              {
                "Citations": [
                  {
                    "Cited_Guidance": "Value is \"Y\" for planned visits, null for unplanned visits.",
                    "Document": "SDTMIG v3.4",
                    "Item": "SVPRESP",
                    "Section": "5.5"
                  },
                  {
                    "Cited_Guidance": "The values of VISITNUM in the TV dataset are the valid values of VISITNUM for planned Visits.  Any values of VISITNUM that appear in subject-level datasets that are not in the TV dataset are assumed to correspond to unplanned Visits.  This applies, in particular, to the subject-level Subject Visits (SV) dataset; see SV under Section 5, Models for Special-Purpose Domains, for additional information about handling unplanned Visits.",
                    "Document": "SDTMIG v3.4",
                    "Item": "Assumption 6",
                    "Section": "7.3.1"
                  }
                ],
                "Origin": "SDTM and SDTMIG Conformance Rules",
                "Rule_Identifier": {
                  "Id": "CG0655",
                  "Version": "1"
                },
                "Version": "2.0"
              }
            ],
            "Version": "3.4"
          },
          {
            "Name": "TIG",
            "References": [
              {
                "Citations": [
                  {
                    "Cited_Guidance": "Specification-SVPRESP  Used to indicate whether the visit was planned (i.e., visits specified in the TV domain). Value is \"Y\" for planned visits, null for unplanned visits. Planned and unplanned visits with a subject, whether or not they are physical visits to the site, are represented in this domain.",
                    "Document": "TIG 1.0",
                    "Item": "Specifications",
                    "Section": "2.8.10.25"
                  }
                ],
                "Origin": "TIG Conformance Rules",
                "Rule_Identifier": {
                  "Id": "TIG0693",
                  "Version": "1"
                },
                "Version": "1.0"
              }
            ],
            "Substandard": "SDTM",
            "Version": "1.0"
          }
        ]
      }
    ],
    "Check": {
      "all": [
        {
          "name": "SVPRESP",
          "operator": "equal_to",
          "value": "Y",
          "value_is_literal": true
        },
        {
          "name": "VISITNUM",
          "operator": "is_not_contained_by",
          "value": "$tv_visitnum"
        }
      ]
    },
    "Core": {
      "Id": "CORE-000039",
      "Status": "Published",
      "Version": "1"
    },
    "Description": "Raise an error when a visit is planned (SVPRESP = 'Y') but VISITNUM value does not match any VISITNUM value in the TV dataset.",
    "Executability": "Fully Executable",
    "Operations": [
      {
        "domain": "TV",
        "id": "$tv_visitnum",
        "name": "VISITNUM",
        "operator": "distinct"
      }
    ],
    "Outcome": {
      "Message": "VISITNUM value for planned visit does not match any VISITNUM value in the TV dataset.",
      "Output_Variables": [
        "VISITNUM",
        "VISIT",
        "SVPRESP"
      ]
    },
    "Rule_Type": "Record Data",
    "Scope": {
      "Classes": {
        "Include": [
          "SPECIAL PURPOSE"
        ]
      },
      "Domains": {
        "Include": [
          "SV"
        ]
      },
      "Use_Case": "INDH"
    },
    "Sensitivity": "Record"
  },
  "CORE-000040": {
    "Authorities": [
      {
        "Organization": "CDISC",
        "Standards": [
          {
            "Name": "SDTMIG",
            "References": [
              {
                "Citations": [
                  {
                    "Cited_Guidance": "Value is \"Y\" for planned visits, null for unplanned visits.",
                    "Document": "SDTMIG v3.4",
                    "Item": "SVPRESP",
                    "Section": "5.5"
                  },
                  {
