STUDYID,DOMAIN,USUBJID,SUBJID,RFSTDTC,RFENDTC,RFXSTDTC,RFXENDTC,RFICDTC,RFPENDTC,DTHDTC,DTHFL,SITEID,BRTHDTC,AGE,AGETXT,AGEU,SEX,RACE,ETHNIC,ARMCD,ARM,ACTARMCD,ACTARM
ABC,DM,015246-076-0003-00003,076000300003,,,2018-04-02T11:32,2019-02-19T10:55,2018-03-06,2021-02-18,2021-02-18,,0760003,1940-01-14,78,,YEARS,F,WHITE,HISPANIC OR LATINO,SCRNFAIL,Screen Failure,SCRNFAIL,Screen Failure
ABC,DM,015246-076-0003-00004,076000300004,,,2018-05-08T11:20,2018-08-29T10:35,2018-04-17,2018-09-04,2018-09-04,N,3000004,1947-12-23,70,,YEARS,F,WHITE,NOT HISPANIC OR LATINO,NOTASSGN,Not Assigned,NOTASSGN,Not Assigned
ABC,DM,015246-076-0003-00005,076000300005,,,2018-05-08T11:21,2018-08-29T10:36,2018-04-18,2018-09-04,2018-09-04,N,3000005,1947-12-24,71,,YEARS,F,WHITE,NOT HISPANIC OR LATINO,NOTASSGN,NOT ASSIGNED,NOTASSGN,NOT ASSIGNED
ABC,DM,015246-076-0003-00006,076000300006,,,2018-05-08T11:22,2018-08-29T10:37,2018-04-19,2018-09-04,2018-09-04,N,3000006,1947-12-25,72,,YEARS,F,WHITE,NOT HISPANIC OR LATINO,NOTTRT,Not Treated,NOTTRT,Not Treated
ABC,DM,015246-076-0003-00007,076000300007,,,2018-05-08T11:23,2018-08-29T10:38,2018-04-20,2018-09-04,2018-09-04,N,3000007,1947-12-26,73,,YEARS,F,WHITE,NOT HISPANIC OR LATINO,NOTTRT,NOT TREATED,NOTTRT,NOT TREATED
ABC,DM,015246-076-0003-00008,076000300008,,,2018-05-08T11:20,2018-08-29T10:35,2018-04-17,2018-09-04,2019-11-18,Y,3000004,1947-12-23,71,,YEARS,F,WHITE,NOT HISPANIC OR LATINO,SCRNFAIL,SCREEN FAILURE,SCRNFAIL,SCREEN FAILURE
ABC,DM,015246-076-0003-00009,076000300009,2023-01-03,2023-01-03,2018-04-02T11:32,2019-02-19T10:55,2018-03-06,2021-02-18,2021-02-18,,0760003,1940-01-14,78,,YEARS,F,WHITE,HISPANIC OR LATINO,PLACEBO,Placebo,PLACEBO,Screen FAILURE
ABC,DM,015246-076-0003-00010,076000300010,2023-01-04,2023-01-04,2018-05-08T11:20,2018-08-29T10:35,2018-04-17,2018-09-04,2018-09-04,N,3000004,1947-12-23,70,,YEARS,F,WHITE,NOT HISPANIC OR LATINO,ZAN_LOW,Zanomaline Low Dose (54 mg),RANDOM,IKd
ABC,DM,015246-076-0003-00011,076000300011,2023-01-05,2023-01-05,2018-05-08T11:20,2018-08-29T10:35,2018-04-17,2018-09-04,2019-11-18,Y,3000004,1947-12-23,71,,YEARS,F,WHITE,NOT HISPANIC OR LATINO,ZAN_HIGH,Zanomaline High Dose (81 mg),RANDOM,IKd
