STUDYID,DOMAIN,USUBJID,AESEQ,AESPID,AETERM,AELLT,AELLTCD,AEDECOD,AEPTCD,AEHLT,AEHLTCD,AEHLGT,AEHLGTCD,AESCAT,AEBODSYS,AEBDSYCD,AESOC,AESOCCD,AESEV,AESER,AEACN,AEREL,AEOUT,AESHOSP,AESTDTC,AEENDTC,AESTDY
CDISC-TEST,AE,CDISC-TEST-099,1593,1586,PNEUMONIA,Pneumonia,10035664,Pneumonia,10035664,Lower respiratory tract and lung infections,10025101,Infections - pathogen unspecified,10021879,INFECTIONS AND INFESTATIONS,Infections and infestations,10021881,Infections and infestations,10021881,MODERATE,N,,,RECOVERED/RESOLVED,Y,2019-06-07,,97
CDISC-TEST,AE,CDISC-TEST-099,1595,1594,URINARY TRACT INFECTION,Urinary tract infection,10046571,Urinary tract infection,10046571,Urinary tract infections,10046577,Infections - pathogen unspecified,10021879,INFECTIONS AND INFESTATIONS,Cardiac disorders,10007541,Cardiac disorders,10007541,MILD,N,,,RECOVERED/RESOLVED,N,2019-03-17,,15
CDISC-TEST,AE,CDISC-TEST-100,1596,1603,UPSET STOMACH,Upset stomach,10046318,Abdominal discomfort,10000059,Gastrointestinal signs and symptoms NEC,10027678,Gastrointestinal signs and symptoms,10018012,Gastrointestinal disorders,Musculoskeletal and connective tissue disorders,10028395,Musculoskeletal and connective tissue disorders,10028395,MILD,N,,,RECOVERED/RESOLVED,N,2019-05-30,,88
CDISC-TEST,AE,CDISC-TEST-100,1598,1615,BACK PAIN,Back pain,10003988,Back pain,10003988,Musculoskeletal and connective tissue pain and discomfort,10068757,Musculoskeletal and connective tissue disorders NEC,10028393,MUSCULOSKELETAL AND CONNECTIVE TISSUE DISORDERS,Musculoskeletal and connective tissue disorders,10028395,Musculoskeletal and connective tissue disorders,10028395,MILD,N,,,RECOVERED/RESOLVED,N,2019-03-05,,2
