STUDYID ,DOMAIN ,USUBJID,DSSEQ ,DSTERM,RPHASE,RPPLDY,RPPLSTDY,RPPLENDY,DSRPDY,DSRPSTDY,DSRPENDY,DSSTDTC
EFD111 ,DS,EFD111-0001 ,1,aa,GESTATION ,1,1,1,1,1,1,2023-01-01
EFD111 ,DS,EFD111-0001 ,2,bb,GESTATION ,2,2,2,2,2,2,2023-01-02
EFD111 ,DS,EFD111-0001 ,3,cc,GESTATION ,3,3,3,3,3,3,2023-01-03
EFD111 ,DS,EFD111-0001 ,4,dd,GESTATION ,4,4,4,4,4,4,2023-01-04
EFD111 ,DS,EFD111-0001 ,5,ee,GESTATION ,-5,5,5,5,5,5,2023-01-05
EFD111 ,DS,EFD111-0001 ,6,ee,GESTATION ,-6,6,6,6,6,6,2023-01-06
