STUDYID ,DOMAIN ,USUBJID,EXSEQ ,EXTRT,EXDOSE,EXDOSU,EXDOSFRM,EXDOSFRQ,EXROUTE,EXLOT,RPHASE,RPPLDY,RPPLSTDY,RPPLENDY,EXRPDY,EXRPSTDY,EXRPENDY,EXSTDTC
EFD111 ,EX,EFD111-0001 ,1,DRUG A,1,mg,POWDER,,ORAL,,GESTATION ,1,1,1,1,1,1,2023-01-01
EFD111 ,EX,EFD111-0001 ,2,DRUG A,1,mg,POWDER,,ORAL,,GESTATION ,2,2,2,2,2,2,2023-01-02
EFD111 ,EX,EFD111-0001 ,3,DRUG A,1,mg,POWDER,,ORAL,,GESTATION ,3,3,3,3,3,3,2023-01-03
EFD111 ,EX,EFD111-0001 ,4,DRUG A,1,mg,POWDER,,ORAL,,GESTATION ,4,4,4,4,4,4,2023-01-04
EFD111 ,EX,EFD111-0001 ,5,DRUG A,1,mg,POWDER,,ORAL,,GESTATION ,-5,5,5,5,5,5,2023-01-05
EFD111 ,EX,EFD111-0001 ,6,DRUG A,1,mg,POWDER,,ORAL,,GESTATION ,0,6,6,6,6,6,2023-01-06
