STUDYID ,DOMAIN ,USUBJID,LBSEQ ,LBTESTCD,LBTEST,LBORRES,RPHASE,RPPLDY,RPPLSTDY,RPPLENDY,LBRPDY,LBRPSTDY,LBRPENDY,LBSTDTC
EFD111 ,LB,EFD111-0001 ,1,GLUC,Glucose,POSITIVE,GESTATION ,1,1,1,1,1,1,2023-01-01
EFD111 ,LB,EFD111-0001 ,2,GLUC,Glucose,POSITIVE,GESTATION ,2,2,2,2,2,2,2023-01-02
EFD111 ,LB,EFD111-0001 ,3,GLUC,Glucose,POSITIVE,GESTATION ,3,3,3,3,3,3,2023-01-03
EFD111 ,LB,EFD111-0001 ,4,GLUC,Glucose,POSITIVE,GESTATION ,4,4,4,4,4,4,2023-01-04
EFD111 ,LB,EFD111-0001 ,5,GLUC,Glucose,POSITIVE,GESTATION ,-5,5,5,5,5,5,2023-01-05
EFD111 ,LB,EFD111-0001 ,6,GLUC,Glucose,POSITIVE,GESTATION ,-5,5,5,5,5,6,2023-01-06
