STUDYID,DOMAIN,USUBJID,VSSEQ,VSTESTCD,VSTEST,VSPOS,VSORRES,VSORRESU,VSSTRESC,VSSTRESN,VSSTRESU,VSSTAT,VSLOC,VSLOBXFL,VSREPNUM,VISITNUM,VISIT,EPOCH,VSDTC,VSDY
CDISCPILOT01,VS,CDISC001,1,DIABP,Diastolic Blood Pressure,STANDING,71,mmHg,71,71,mmHg,,,,,1,SCREENING 1,SCREENING,2012-11-23,-7
CDISCPILOT01,VS,CDISC001,2,DIABP,Diastolic Blood Pressure,STANDING,71,mmHg,71,71,mmHg,,,,,2,SCREENING 2,SCREENING,2012-11-28,-2
CDISCPILOT01,VS,CDISC001,3,DIABP,Diastolic Blood Pressure,STANDING,83,mmHg,83,83,mmHg,,,Y,,3,BASELINE,SCREENING,2012-11-30,1
CDISCPILOT01,VS,CDISC001,4,DIABP,Diastolic Blood Pressure,STANDING,79,mmHg,79,79,mmHg,,,,,4,WEEK 2,TREATMENT,2012-12-13,14
CDISCPILOT01,VS,CDISC001,5,DIABP,Diastolic Blood Pressure,STANDING,68,mmHg,68,68,mmHg,,,,,5,WEEK 4,TREATMENT,2012-12-26,27
CDISCPILOT01,VS,CDISC001,6,DIABP,Diastolic Blood Pressure,SUPINE,77,mmHg,77,77,mmHg,,,,1,7,WEEK 6,TREATMENT,2013-01-10,42
CDISCPILOT01,VS,CDISC001,7,DIABP,Diastolic Blood Pressure,STANDING,71,mmHg,71,71,mmHg,,,,2,7,WEEK 6,TREATMENT,2013-01-10,42
CDISCPILOT01,VS,CDISC001,8,DIABP,Diastolic Blood Pressure,STANDING,69,mmHg,69,69,mmHg,,,,3,7,WEEK 6,TREATMENT,2013-01-10,42
CDISCPILOT01,VS,CDISC001,9,DIABP,Diastolic Blood Pressure,SUPINE,76,mmHg,76,76,mmHg,,,,1,8,WEEK 8,TREATMENT,2013-01-23,55
CDISCPILOT01,VS,CDISC001,10,DIABP,Diastolic Blood Pressure,STANDING,52,mmHg,52,52,mmHg,,,,2,8,WEEK 8,TREATMENT,2013-01-23,55
CDISCPILOT01,VS,CDISC001,11,DIABP,Diastolic Blood Pressure,STANDING,60,mmHg,60,60,mmHg,,,,3,8,WEEK 8,TREATMENT,2013-01-23,55
CDISCPILOT01,VS,CDISC001,12,DIABP,Diastolic Blood Pressure,SUPINE,68,mmHg,68,68,mmHg,,,,1,201,EARLY DISCONTINUATION RETRIEVAL,TREATMENT,2013-05-20,172
CDISCPILOT01,VS,CDISC001,13,DIABP,Diastolic Blood Pressure,STANDING,72,mmHg,72,72,mmHg,,,,2,201,EARLY DISCONTINUATION RETRIEVAL,TREATMENT,2013-05-20,172
CDISCPILOT01,VS,CDISC001,14,DIABP,Diastolic Blood Pressure,STANDING,68,mmHg,68,68,mmHg,,,,3,201,EARLY DISCONTINUATION RETRIEVAL,TREATMENT,2013-05-20,172
CDISCPILOT01,VS,CDISC001,15,HEIGHT,Height,,71.5,in,181.61,181.61,cm,,,,,1,SCREENING 1,SCREENING,2012-11-23,-7
CDISCPILOT01,VS,CDISC001,16,PULSE,Pulse Rate,STANDING,51,beats/min,51,51,beats/min,,,,,1,SCREENING 1,SCREENING,2012-11-23,-7
CDISCPILOT01,VS,CDISC001,17,PULSE,Pulse Rate,STANDING,50,beats/min,50,50,beats/min,,,,,2,SCREENING 2,SCREENING,2012-11-28,-2
CDISCPILOT01,VS,CDISC001,18,PULSE,Pulse Rate,STANDING,50,beats/min,50,50,beats/min,,,Y,,3,BASELINE,SCREENING,2012-11-30,1
CDISCPILOT01,VS,CDISC001,19,PULSE,Pulse Rate,STANDING,53,beats/min,53,53,beats/min,,,,,4,WEEK 2,TREATMENT,2012-12-13,14
CDISCPILOT01,VS,CDISC001,20,PULSE,Pulse Rate,STANDING,51,beats/min,51,51,beats/min,,,,,5,WEEK 4,TREATMENT,2012-12-26,27
CDISCPILOT01,VS,CDISC001,21,PULSE,Pulse Rate,SUPINE,52,beats/min,52,52,beats/min,,,,1,7,WEEK 6,TREATMENT,2013-01-10,42
CDISCPILOT01,VS,CDISC001,22,PULSE,Pulse Rate,STANDING,62,beats/min,62,62,beats/min,,,,2,7,WEEK 6,TREATMENT,2013-01-10,42
CDISCPILOT01,VS,CDISC001,23,PULSE,Pulse Rate,STANDING,62,beats/min,62,62,beats/min,,,,3,7,WEEK 6,TREATMENT,2013-01-10,42
CDISCPILOT01,VS,CDISC001,24,PULSE,Pulse Rate,SUPINE,50,beats/min,50,50,beats/min,,,,1,8,WEEK 8,TREATMENT,2013-01-23,55
CDISCPILOT01,VS,CDISC001,25,PULSE,Pulse Rate,STANDING,52,beats/min,52,52,beats/min,,,,2,8,WEEK 8,TREATMENT,2013-01-23,55
CDISCPILOT01,VS,CDISC001,26,PULSE,Pulse Rate,STANDING,54,beats/min,54,54,beats/min,,,,3,8,WEEK 8,TREATMENT,2013-01-23,55
CDISCPILOT01,VS,CDISC001,27,PULSE,Pulse Rate,SUPINE,79,beats/min,79,79,beats/min,,,,1,201,EARLY DISCONTINUATION RETRIEVAL,TREATMENT,2013-05-20,172
CDISCPILOT01,VS,CDISC001,28,PULSE,Pulse Rate,STANDING,98,beats/min,98,98,beats/min,,,,2,201,EARLY DISCONTINUATION RETRIEVAL,TREATMENT,2013-05-20,172
CDISCPILOT01,VS,CDISC001,29,PULSE,Pulse Rate,STANDING,94,beats/min,94,94,beats/min,,,,3,201,EARLY DISCONTINUATION RETRIEVAL,TREATMENT,2013-05-20,172
CDISCPILOT01,VS,CDISC001,30,SYSBP,Systolic Blood Pressure,STANDING,137,mmHg,137,137,mmHg,,,,,1,SCREENING 1,SCREENING,2012-11-23,-7
CDISCPILOT01,VS,CDISC001,31,SYSBP,Systolic Blood Pressure,STANDING,137,mmHg,137,137,mmHg,,,,,2,SCREENING 2,SCREENING,2012-11-28,-2
CDISCPILOT01,VS,CDISC001,32,SYSBP,Systolic Blood Pressure,STANDING,130,mmHg,130,130,mmHg,,,Y,,3,BASELINE,SCREENING,2012-11-30,1
CDISCPILOT01,VS,CDISC001,33,SYSBP,Systolic Blood Pressure,STANDING,122,mmHg,122,122,mmHg,,,,,4,WEEK 2,TREATMENT,2012-12-13,14
CDISCPILOT01,VS,CDISC001,34,SYSBP,Systolic Blood Pressure,STANDING,115,mmHg,115,115,mmHg,,,,,5,WEEK 4,TREATMENT,2012-12-26,27
CDISCPILOT01,VS,CDISC001,35,SYSBP,Systolic Blood Pressure,SUPINE,131,mmHg,131,131,mmHg,,,,1,7,WEEK 6,TREATMENT,2013-01-10,42
CDISCPILOT01,VS,CDISC001,36,SYSBP,Systolic Blood Pressure,STANDING,107,mmHg,107,107,mmHg,,,,2,7,WEEK 6,TREATMENT,2013-01-10,42
CDISCPILOT01,VS,CDISC001,37,SYSBP,Systolic Blood Pressure,STANDING,104,mmHg,104,104,mmHg,,,,3,7,WEEK 6,TREATMENT,2013-01-10,42
CDISCPILOT01,VS,CDISC001,38,SYSBP,Systolic Blood Pressure,SUPINE,123,mmHg,123,123,mmHg,,,,1,8,WEEK 8,TREATMENT,2013-01-23,55
CDISCPILOT01,VS,CDISC001,39,SYSBP,Systolic Blood Pressure,STANDING,113,mmHg,113,113,mmHg,,,,2,8,WEEK 8,TREATMENT,2013-01-23,55
CDISCPILOT01,VS,CDISC001,40,SYSBP,Systolic Blood Pressure,STANDING,98,mmHg,98,98,mmHg,,,,3,8,WEEK 8,TREATMENT,2013-01-23,55
CDISCPILOT01,VS,CDISC001,41,SYSBP,Systolic Blood Pressure,SUPINE,99,mmHg,99,99,mmHg,,,,1,201,EARLY DISCONTINUATION RETRIEVAL,TREATMENT,2013-05-20,172
CDISCPILOT01,VS,CDISC001,42,SYSBP,Systolic Blood Pressure,STANDING,99,mmHg,99,99,mmHg,,,,2,201,EARLY DISCONTINUATION RETRIEVAL,TREATMENT,2013-05-20,172
CDISCPILOT01,VS,CDISC001,43,SYSBP,Systolic Blood Pressure,STANDING,99,mmHg,99,99,mmHg,,,,3,201,EARLY DISCONTINUATION RETRIEVAL,TREATMENT,2013-05-20,172
CDISCPILOT01,VS,CDISC001,44,TEMP,Temperature,,97.4,F,36.33,36.33,C,,ORAL CAVITY,,,1,SCREENING 1,SCREENING,2012-11-23,-7
CDISCPILOT01,VS,CDISC001,45,TEMP,Temperature,,97.2,F,36.22,36.22,C,,ORAL CAVITY,,,2,SCREENING 2,SCREENING,2012-11-28,-2
CDISCPILOT01,VS,CDISC001,46,TEMP,Temperature,,98.0,F,36.67,36.67,C,,ORAL CAVITY,Y,,3,BASELINE,SCREENING,2012-11-30,1
CDISCPILOT01,VS,CDISC001,47,TEMP,Temperature,,98.0,F,36.67,36.67,C,,ORAL CAVITY,,,4,WEEK 2,TREATMENT,2012-12-13,14
CDISCPILOT01,VS,CDISC001,48,TEMP,Temperature,,97.7,F,36.5,36.5,C,,ORAL CAVITY,,,5,WEEK 4,TREATMENT,2012-12-26,27
CDISCPILOT01,VS,CDISC001,49,TEMP,Temperature,,97.6,F,36.44,36.44,C,,ORAL CAVITY,,,7,WEEK 6,TREATMENT,2013-01-10,42
CDISCPILOT01,VS,CDISC001,50,TEMP,Temperature,,97.6,F,36.44,36.44,C,,ORAL CAVITY,,,8,WEEK 8,TREATMENT,2013-01-23,55
CDISCPILOT01,VS,CDISC001,51,TEMP,Temperature,,97.4,F,36.33,36.33,C,,ORAL CAVITY,,,201,EARLY DISCONTINUATION RETRIEVAL,TREATMENT,2013-05-20,172
CDISCPILOT01,VS,CDISC001,52,WEIGHT,Weight,,173.5,LB,78.7,78.7,kg,,,,,1,SCREENING 1,SCREENING,2012-11-23,-7
CDISCPILOT01,VS,CDISC001,53,WEIGHT,Weight,,174.0,LB,78.93,78.93,kg,,,Y,,3,BASELINE,SCREENING,2012-11-30,1
CDISCPILOT01,VS,CDISC001,54,WEIGHT,Weight,,174.0,LB,78.93,78.93,kg,,,,,4,WEEK 2,TREATMENT,2012-12-13,14
CDISCPILOT01,VS,CDISC001,55,WEIGHT,Weight,,173.0,LB,78.47,78.47,kg,,,,,5,WEEK 4,TREATMENT,2012-12-26,27
CDISCPILOT01,VS,CDISC001,56,WEIGHT,Weight,,173.0,LB,78.47,78.47,kg,,,,,7,WEEK 6,TREATMENT,2013-01-10,42
CDISCPILOT01,VS,CDISC001,57,WEIGHT,Weight,,173.0,LB,78.47,78.47,kg,,,,,8,WEEK 8,TREATMENT,2013-01-23,55
CDISCPILOT01,VS,CDISC002,1,DIABP,Diastolic Blood Pressure,STANDING,60,mmHg,60,60,mmHg,,,,,1,SCREENING 1,SCREENING,2012-10-30,-16
CDISCPILOT01,VS,CDISC002,2,DIABP,Diastolic Blood Pressure,STANDING,64,mmHg,64,64,mmHg,,,,,2,SCREENING 2,SCREENING,2012-11-14,-1
CDISCPILOT01,VS,CDISC002,3,DIABP,Diastolic Blood Pressure,STANDING,64,mmHg,64,64,mmHg,,,Y,,3,BASELINE,SCREENING,2012-11-15,1
CDISCPILOT01,VS,CDISC002,4,DIABP,Diastolic Blood Pressure,STANDING,58,mmHg,58,58,mmHg,,,,,4,WEEK 2,TREATMENT,2012-11-28,14
CDISCPILOT01,VS,CDISC002,5,DIABP,Diastolic Blood Pressure,STANDING,55,mmHg,55,55,mmHg,,,,,5,WEEK 4,TREATMENT,2012-12-11,27
CDISCPILOT01,VS,CDISC002,6,DIABP,Diastolic Blood Pressure,STANDING,60,mmHg,60,60,mmHg,,,,,7,WEEK 6,TREATMENT,2012-12-25,41
CDISCPILOT01,VS,CDISC002,7,DIABP,Diastolic Blood Pressure,SUPINE,59,mmHg,59,59,mmHg,,,,1,8,WEEK 8,TREATMENT,2013-01-08,55
CDISCPILOT01,VS,CDISC002,8,DIABP,Diastolic Blood Pressure,STANDING,65,mmHg,65,65,mmHg,,,,2,8,WEEK 8,TREATMENT,2013-01-08,55
CDISCPILOT01,VS,CDISC002,9,DIABP,Diastolic Blood Pressure,STANDING,68,mmHg,68,68,mmHg,,,,3,8,WEEK 8,TREATMENT,2013-01-08,55
