STUDYID,DOMAIN,USUBJID,PCSEQ,PCDTC,PCTPT,PCTPTNUM,PCRFTDTC
ABC123,PC,123101,1,2005-10-13,- 10 MIN ,1,2005-10-13T10:15
ABC123,PC,123101,2,2005-10-13,1 HR,2,2005-10-13T10:15
ABC123,PC,123101,3,2005-10-13,2 HR,3,2005-10-13T10:15
ABC123,PC,123101,4,2005-10-13,24 HR,4,2005-10-13T10:15
ABC123,PC,123101,5,2005-10-13,48 HR,5,2005-10-13T10:15
