dataset,variable,label,type,length
ml.xpt,STUDYID,Study Identifier,Char,50
ml.xpt,DOMAIN,Domain Abbreviation,Char,50
ml.xpt,USUBJID,Unique Subject Identifier,Char,50
ml.xpt,MLSEQ,Sequence Number,Num,8
ml.xpt,MLTPT,Planned Time Point Name,Char,50
ml.xpt,MLTPTNUM,Planned Time Point Number,Num,8
ml.xpt,MLELTM,Planned Elapsed Time from Time Point Ref,Char,50
ml.xpt,MLTPTREF,Time Point Reference,Char,50
ml.xpt,MLRFTDTC,Date/Time of Reference Time Point,Char,50
pc.xpt,STUDYID,Study Identifier,Char,50
pc.xpt,DOMAIN,Domain Abbreviation,Char,50
pc.xpt,USUBJID,Unique Subject Identifier,Char,50
pc.xpt,PCSEQ,Sequence Number,Num,8
pc.xpt,PCDTC,Date/Time of Specimen Collection,Char,50
pc.xpt,PCTPT,Planned Time Point Name,Char,50
pc.xpt,PCTPTNUM,Planned Time Point Number,Num,8
pc.xpt,PCRFTDTC,Date/Time of Reference Point,Char,50
