STUDYID,DOMAIN,USUBJID,CESEQ,CETERM,CEPRESP,CEOCCUR
CDISCPILOT01,CE,CDISC001,1,Rash,Y,N
CDISCPILOT01,CE,CDISC001,2,Wheezing,Y,N
CDISCPILOT01,CE,CDISC001,3,Edema,Y,N
CDISCPILOT01,CE,CDISC001,4,Conjunctivitis,,
