STUDYID,DOMAIN,USUBJID,PCSEQ,PCTESTCD,PCTEST,PCORRES,PCORRESU,PCSTRESC,PCSTRESN,PCSTRESU,PCSTAT,PCLLOQ
1234,PC,123101,1,DRUGX,Study Drug,9,ug/mL,,,ug/mL,,10
1234,PC,123101,2,DRUGX,Study Drug,,,,,,NOT DONE,10
1234,PC,123101,3,DRUGX,Study Drug,11,ug/mL,11,11,ug/mL,,
1234,PC,123101,4,DRUGX,Study Drug,,,,,,NOT DONE,
