STUDYID,DOMAIN,USUBJID,OMSEQ,OMTESTCD,OMTEST,OMORRES,OMORRESU,OMSTRESC,OMSTRESN,OMSTRESU,OMSPEC,OMLAT,OMSPCUFL,OMBLFL,OMDTC,OMDY
CDISC-TEST,OM,CDISC-TEST-001,1,WEIGHT,Weight,10.0,g,10.0,10,g,KIDNEY,LEFT,,,2006-10-08 00:00:00,5
CDISC-TEST,OM,CDISC-TEST-001,2,WEIGHT,Weight,10.1,g,10.1,10.1,g,LIVER,,,,2006-10-09 00:00:00,5
