{
    "rule": {
      "_links": {},
      "core_id": "CDISC.SDTMIG.CG0033",
      "reference": [
        {
          "Origin": "SDTM and SDTMIG Conformance Rules",
          "Rule Identifier": {
            "Id": "CG0033",
            "Version": "1"
          },
          "Version": "2.0"
        }
      ],
      "sensitivity": "Record",
      "severity": "error",
      "description": "If VISITNUM is not null and VISIT is planned then VISITNUM should be among TV.VISITNUM",
      "authority": {
        "Organization": "CDISC"
      },
      "standards": [
        {
          "Name": "SDTMIG",
          "Version": "3.4"
        }
      ],
      "classes": {
        "Include": [
          "All"
        ]
      },
      "domains": {
        "Exclude": [
          "TV"
        ]
      },
      "datasets": [
        {
          "domain_name": "SV",
          "match_key": [
            "USUBJID",
            "VISITNUM"
          ]
        }
      ],
      "rule_type": "Range & Limit",
      "conditions": {
        "all": [
          {
            "name": "get_dataset",
            "operator": "equal_to",
            "value": {
              "target": "SVPRESP",
              "comparator": "Y"
            }
          },
          {
            "name": "get_dataset",
            "operator": "is_not_contained_by",
            "value": {
              "target": "VISITNUM",
              "comparator": "$TV_VISITNUM"
            }
          }
        ]
      },
      "operations": [
        {
          "domain": "TV",
          "id": "$TV_VISITNUM",
          "name": "VISITNUM",
          "operator": "distinct"
        }
      ],
      "output_variables": [
        "VISITNUM",
        "SVPRESP"
      ],
      "actions": [
        {
          "name": "generate_dataset_error_objects",
          "params": {
            "message": "For a planned visit, non missing VISITNUM value must be among those present in TV.VISITNUM"
          }
        }
      ]
    },
    "datasets": [
      {
        "filename": "lb.xpt",
        "label": "Laboratory Test Results",
        "domain": "LB",
        "variables": [
          {
            "name": "STUDYID",
            "label": "Study Identifier",
            "type": "Char",
            "length": 12
          },
          {
            "name": "DOMAIN",
            "label": "Domain Abbreviation",
            "type": "Char",
            "length": 2
          },
          {
            "name": "USUBJID",
            "label": "Unique Subject Identifier",
            "type": "Char",
            "length": 8
          },
          {
            "name": "LBSEQ",
            "label": "Sequence Number",
            "type": "Num",
            "length": 8
          },
          {
            "name": "LBTESTCD",
            "label": "Lab Test or Examination Short Name",
            "type": "Char",
            "length": 7
          },
          {
            "name": "LBTEST",
            "label": "Lab Test or Examination Name",
            "type": "Char",
            "length": 39
          },
          {
            "name": "LBCAT",
            "label": "Category for Lab Test",
            "type": "Char",
            "length": 10
          },
          {
            "name": "LBORRES",
            "label": "Result or Finding in Original Units",
            "type": "Char",
            "length": 6
          },
          {
            "name": "LBORRESU",
            "label": "Original Units",
            "type": "Char",
            "length": 7
          },
          {
            "name": "LBORNRLO",
            "label": "Reference Range Lower Limit in Orig Unit",
            "type": "Char",
            "length": 200
          },
          {
            "name": "LBORNRHI",
            "label": "Reference Range Upper Limit in Orig Unit",
            "type": "Char",
            "length": 200
          },
          {
            "name": "LBSTRESC",
            "label": "Character Result/Finding in Std Format",
            "type": "Char",
            "length": 8
          },
          {
            "name": "LBSTRESN",
            "label": "Numeric Result/Finding in Standard Units",
            "type": "Num",
            "length": 8
          },
          {
            "name": "LBSTRESU",
            "label": "Standard Units",
            "type": "Char",
            "length": 7
          },
          {
            "name": "LBSTNRLO",
            "label": "Reference Range Lower Limit-Std Units",
            "type": "Num",
            "length": 8
          },
          {
            "name": "LBSTNRHI",
            "label": "Reference Range Upper Limit-Std Units",
            "type": "Num",
            "length": 8
          },
          {
            "name": "LBNRIND",
            "label": "Reference Range Indicator",
            "type": "Char",
            "length": 8
          },
          {
            "name": "LBLOBXFL",
            "label": "Last Observation Before Exposure Flag",
            "type": "Char",
            "length": 1
          },
          {
            "name": "VISITNUM",
            "label": "Visit Number",
            "type": "Num",
            "length": 8
          },
          {
            "name": "VISIT",
            "label": "Visit Name",
            "type": "Char",
            "length": 200
          },
          {
            "name": "EPOCH",
            "label": "Epoch",
            "type": "Char",
            "length": 9
          },
          {
            "name": "LBDTC",
            "label": "Date/Time of Specimen Collection",
            "type": "Char",
            "length": 19
          },
          {
            "name": "LBDY",
            "label": "Study Day of Specimen Collection",
            "type": "Num",
            "length": 8
          }
        ],
        "records": {
          "STUDYID": [
            "CDISCPILOT01",
            "CDISCPILOT01",
            "CDISCPILOT01",
            "CDISCPILOT01",
            "CDISCPILOT01",
            "CDISCPILOT01",
            "CDISCPILOT01",
            "CDISCPILOT01",
            "CDISCPILOT01",
            "CDISCPILOT01",
            "CDISCPILOT01",
            "CDISCPILOT01",
            "CDISCPILOT01",
            "CDISCPILOT01",
            "CDISCPILOT01",
            "CDISCPILOT01",
            "CDISCPILOT01",
            "CDISCPILOT01",
            "CDISCPILOT01",
            "CDISCPILOT01",
            "CDISCPILOT01",
            "CDISCPILOT01",
            "CDISCPILOT01",
            "CDISCPILOT01",
            "CDISCPILOT01",
            "CDISCPILOT01",
            "CDISCPILOT01",
            "CDISCPILOT01",
            "CDISCPILOT01",
            "CDISCPILOT01",
            "CDISCPILOT01",
            "CDISCPILOT01",
            "CDISCPILOT01",
            "CDISCPILOT01",
            "CDISCPILOT01",
            "CDISCPILOT01",
            "CDISCPILOT01",
            "CDISCPILOT01",
            "CDISCPILOT01",
            "CDISCPILOT01",
            "CDISCPILOT01",
            "CDISCPILOT01",
            "CDISCPILOT01",
            "CDISCPILOT01",
            "CDISCPILOT01",
            "CDISCPILOT01",
            "CDISCPILOT01",
            "CDISCPILOT01",
            "CDISCPILOT01",
            "CDISCPILOT01",
            "CDISCPILOT01",
            "CDISCPILOT01",
            "CDISCPILOT01",
            "CDISCPILOT01",
            "CDISCPILOT01",
            "CDISCPILOT01",
            "CDISCPILOT01",
            "CDISCPILOT01",
            "CDISCPILOT01",
            "CDISCPILOT01",
            "CDISCPILOT01",
            "CDISCPILOT01",
            "CDISCPILOT01",
            "CDISCPILOT01",
            "CDISCPILOT01",
            "CDISCPILOT01",
            "CDISCPILOT01",
            "CDISCPILOT01",
            "CDISCPILOT01",
            "CDISCPILOT01",
            "CDISCPILOT01",
            "CDISCPILOT01",
            "CDISCPILOT01",
            "CDISCPILOT01",
            "CDISCPILOT01",
            "CDISCPILOT01",
            "CDISCPILOT01",
            "CDISCPILOT01",
            "CDISCPILOT01",
            "CDISCPILOT01",
            "CDISCPILOT01",
            "CDISCPILOT01",
            "CDISCPILOT01",
            "CDISCPILOT01",
            "CDISCPILOT01",
            "CDISCPILOT01",
            "CDISCPILOT01",
            "CDISCPILOT01",
            "CDISCPILOT01",
            "CDISCPILOT01",
            "CDISCPILOT01",
            "CDISCPILOT01",
            "CDISCPILOT01",
            "CDISCPILOT01",
            "CDISCPILOT01",
            "CDISCPILOT01",
            "CDISCPILOT01",
            "CDISCPILOT01",
            "CDISCPILOT01",
            "CDISCPILOT01",
            "CDISCPILOT01",
            "CDISCPILOT01",
            "CDISCPILOT01",
            "CDISCPILOT01",
            "CDISCPILOT01",
            "CDISCPILOT01",
            "CDISCPILOT01",
            "CDISCPILOT01",
            "CDISCPILOT01",
            "CDISCPILOT01",
            "CDISCPILOT01",
            "CDISCPILOT01",
            "CDISCPILOT01",
            "CDISCPILOT01",
            "CDISCPILOT01",
            "CDISCPILOT01",
            "CDISCPILOT01",
            "CDISCPILOT01",
            "CDISCPILOT01",
            "CDISCPILOT01",
            "CDISCPILOT01",
            "CDISCPILOT01",
            "CDISCPILOT01",
            "CDISCPILOT01",
            "CDISCPILOT01",
            "CDISCPILOT01",
            "CDISCPILOT01",
            "CDISCPILOT01",
            "CDISCPILOT01",
            "CDISCPILOT01",
            "CDISCPILOT01",
            "CDISCPILOT01",
            "CDISCPILOT01",
            "CDISCPILOT01",
            "CDISCPILOT01",
            "CDISCPILOT01",
            "CDISCPILOT01",
            "CDISCPILOT01",
            "CDISCPILOT01",
            "CDISCPILOT01",
            "CDISCPILOT01",
            "CDISCPILOT01",
            "CDISCPILOT01",
            "CDISCPILOT01",
            "CDISCPILOT01",
            "CDISCPILOT01",
            "CDISCPILOT01",
            "CDISCPILOT01",
            "CDISCPILOT01",
            "CDISCPILOT01",
            "CDISCPILOT01",
            "CDISCPILOT01",
            "CDISCPILOT01",
            "CDISCPILOT01",
            "CDISCPILOT01",
            "CDISCPILOT01",
            "CDISCPILOT01",
            "CDISCPILOT01",
            "CDISCPILOT01",
            "CDISCPILOT01",
            "CDISCPILOT01",
            "CDISCPILOT01",
            "CDISCPILOT01",
            "CDISCPILOT01",
            "CDISCPILOT01",
            "CDISCPILOT01",
            "CDISCPILOT01",
            "CDISCPILOT01",
            "CDISCPILOT01",
            "CDISCPILOT01",
            "CDISCPILOT01",
            "CDISCPILOT01",
            "CDISCPILOT01",
            "CDISCPILOT01",
            "CDISCPILOT01",
            "CDISCPILOT01",
            "CDISCPILOT01",
            "CDISCPILOT01",
            "CDISCPILOT01",
            "CDISCPILOT01",
            "CDISCPILOT01",
            "CDISCPILOT01",
            "CDISCPILOT01",
            "CDISCPILOT01",
            "CDISCPILOT01",
            "CDISCPILOT01",
            "CDISCPILOT01",
            "CDISCPILOT01",
            "CDISCPILOT01",
            "CDISCPILOT01",
            "CDISCPILOT01",
            "CDISCPILOT01",
            "CDISCPILOT01",
            "CDISCPILOT01",
            "CDISCPILOT01",
            "CDISCPILOT01",
            "CDISCPILOT01",
            "CDISCPILOT01",
            "CDISCPILOT01",
            "CDISCPILOT01",
            "CDISCPILOT01",
            "CDISCPILOT01",
            "CDISCPILOT01",
            "CDISCPILOT01",
            "CDISCPILOT01",
            "CDISCPILOT01",
            "CDISCPILOT01",
            "CDISCPILOT01",
            "CDISCPILOT01",
            "CDISCPILOT01",
            "CDISCPILOT01",
            "CDISCPILOT01",
            "CDISCPILOT01",
            "CDISCPILOT01",
            "CDISCPILOT01",
            "CDISCPILOT01",
            "CDISCPILOT01",
            "CDISCPILOT01",
            "CDISCPILOT01",
            "CDISCPILOT01",
            "CDISCPILOT01",
            "CDISCPILOT01",
            "CDISCPILOT01",
            "CDISCPILOT01",
            "CDISCPILOT01",
            "CDISCPILOT01",
            "CDISCPILOT01",
            "CDISCPILOT01",
            "CDISCPILOT01",
            "CDISCPILOT01",
            "CDISCPILOT01",
            "CDISCPILOT01",
            "CDISCPILOT01",
            "CDISCPILOT01",
            "CDISCPILOT01",
            "CDISCPILOT01",
            "CDISCPILOT01",
            "CDISCPILOT01",
            "CDISCPILOT01",
            "CDISCPILOT01",
            "CDISCPILOT01",
            "CDISCPILOT01",
            "CDISCPILOT01",
            "CDISCPILOT01",
            "CDISCPILOT01",
            "CDISCPILOT01",
            "CDISCPILOT01",
            "CDISCPILOT01",
            "CDISCPILOT01",
            "CDISCPILOT01",
            "CDISCPILOT01",
            "CDISCPILOT01",
            "CDISCPILOT01",
            "CDISCPILOT01",
            "CDISCPILOT01",
            "CDISCPILOT01",
            "CDISCPILOT01",
            "CDISCPILOT01",
            "CDISCPILOT01",
            "CDISCPILOT01",
            "CDISCPILOT01",
            "CDISCPILOT01",
            "CDISCPILOT01",
            "CDISCPILOT01",
            "CDISCPILOT01",
            "CDISCPILOT01",
            "CDISCPILOT01",
            "CDISCPILOT01",
            "CDISCPILOT01",
            "CDISCPILOT01",
            "CDISCPILOT01",
            "CDISCPILOT01",
            "CDISCPILOT01",
            "CDISCPILOT01",
            "CDISCPILOT01",
            "CDISCPILOT01",
            "CDISCPILOT01",
            "CDISCPILOT01",
            "CDISCPILOT01",
            "CDISCPILOT01",
            "CDISCPILOT01",
            "CDISCPILOT01",
            "CDISCPILOT01",
            "CDISCPILOT01",
            "CDISCPILOT01",
            "CDISCPILOT01",
            "CDISCPILOT01",
            "CDISCPILOT01",
            "CDISCPILOT01",
            "CDISCPILOT01",
            "CDISCPILOT01",
            "CDISCPILOT01",
            "CDISCPILOT01",
            "CDISCPILOT01",
            "CDISCPILOT01",
            "CDISCPILOT01",
            "CDISCPILOT01",
            "CDISCPILOT01",
            "CDISCPILOT01",
            "CDISCPILOT01",
            "CDISCPILOT01",
            "CDISCPILOT01",
            "CDISCPILOT01",
            "CDISCPILOT01",
            "CDISCPILOT01",
            "CDISCPILOT01",
            "CDISCPILOT01",
            "CDISCPILOT01",
            "CDISCPILOT01",
            "CDISCPILOT01",
            "CDISCPILOT01",
            "CDISCPILOT01",
            "CDISCPILOT01",
            "CDISCPILOT01",
            "CDISCPILOT01",
            "CDISCPILOT01",
            "CDISCPILOT01",
            "CDISCPILOT01",
            "CDISCPILOT01",
            "CDISCPILOT01",
            "CDISCPILOT01",
            "CDISCPILOT01",
            "CDISCPILOT01",
            "CDISCPILOT01",
            "CDISCPILOT01",
            "CDISCPILOT01",
            "CDISCPILOT01",
            "CDISCPILOT01",
            "CDISCPILOT01",
            "CDISCPILOT01",
            "CDISCPILOT01",
            "CDISCPILOT01",
            "CDISCPILOT01",
            "CDISCPILOT01",
            "CDISCPILOT01",
            "CDISCPILOT01",
            "CDISCPILOT01",
            "CDISCPILOT01",
            "CDISCPILOT01",
            "CDISCPILOT01",
            "CDISCPILOT01",
            "CDISCPILOT01",
            "CDISCPILOT01",
            "CDISCPILOT01",
            "CDISCPILOT01",
            "CDISCPILOT01",
            "CDISCPILOT01",
            "CDISCPILOT01",
            "CDISCPILOT01",
            "CDISCPILOT01",
            "CDISCPILOT01",
            "CDISCPILOT01",
            "CDISCPILOT01",
            "CDISCPILOT01",
            "CDISCPILOT01",
            "CDISCPILOT01",
            "CDISCPILOT01",
            "CDISCPILOT01",
            "CDISCPILOT01",
            "CDISCPILOT01",
            "CDISCPILOT01",
            "CDISCPILOT01",
            "CDISCPILOT01",
            "CDISCPILOT01",
            "CDISCPILOT01",
            "CDISCPILOT01",
            "CDISCPILOT01",
            "CDISCPILOT01",
            "CDISCPILOT01",
            "CDISCPILOT01",
            "CDISCPILOT01",
            "CDISCPILOT01",
            "CDISCPILOT01",
            "CDISCPILOT01",
            "CDISCPILOT01",
            "CDISCPILOT01",
            "CDISCPILOT01",
            "CDISCPILOT01",
            "CDISCPILOT01",
            "CDISCPILOT01",
            "CDISCPILOT01",
            "CDISCPILOT01",
            "CDISCPILOT01",
            "CDISCPILOT01",
            "CDISCPILOT01",
            "CDISCPILOT01",
            "CDISCPILOT01",
            "CDISCPILOT01",
            "CDISCPILOT01",
            "CDISCPILOT01",
            "CDISCPILOT01",
            "CDISCPILOT01",
            "CDISCPILOT01",
            "CDISCPILOT01",
            "CDISCPILOT01",
            "CDISCPILOT01",
            "CDISCPILOT01",
            "CDISCPILOT01",
            "CDISCPILOT01",
            "CDISCPILOT01",
            "CDISCPILOT01",
            "CDISCPILOT01",
            "CDISCPILOT01",
            "CDISCPILOT01",
            "CDISCPILOT01",
            "CDISCPILOT01",
            "CDISCPILOT01",
            "CDISCPILOT01",
            "CDISCPILOT01",
            "CDISCPILOT01",
            "CDISCPILOT01",
            "CDISCPILOT01",
            "CDISCPILOT01",
            "CDISCPILOT01",
            "CDISCPILOT01",
            "CDISCPILOT01",
            "CDISCPILOT01",
            "CDISCPILOT01",
            "CDISCPILOT01",
            "CDISCPILOT01",
            "CDISCPILOT01",
            "CDISCPILOT01",
            "CDISCPILOT01",
            "CDISCPILOT01",
            "CDISCPILOT01",
            "CDISCPILOT01",
            "CDISCPILOT01",
            "CDISCPILOT01",
            "CDISCPILOT01",
            "CDISCPILOT01",
            "CDISCPILOT01",
            "CDISCPILOT01",
            "CDISCPILOT01",
            "CDISCPILOT01",
            "CDISCPILOT01",
            "CDISCPILOT01",
            "CDISCPILOT01",
            "CDISCPILOT01",
            "CDISCPILOT01",
            "CDISCPILOT01",
            "CDISCPILOT01",
            "CDISCPILOT01",
            "CDISCPILOT01",
            "CDISCPILOT01",
            "CDISCPILOT01",
            "CDISCPILOT01",
            "CDISCPILOT01",
            "CDISCPILOT01",
            "CDISCPILOT01",
            "CDISCPILOT01",
            "CDISCPILOT01",
            "CDISCPILOT01",
            "CDISCPILOT01",
            "CDISCPILOT01",
            "CDISCPILOT01",
            "CDISCPILOT01",
            "CDISCPILOT01",
            "CDISCPILOT01",
            "CDISCPILOT01",
            "CDISCPILOT01",
            "CDISCPILOT01",
            "CDISCPILOT01",
            "CDISCPILOT01",
            "CDISCPILOT01",
            "CDISCPILOT01",
            "CDISCPILOT01",
            "CDISCPILOT01",
            "CDISCPILOT01",
            "CDISCPILOT01",
            "CDISCPILOT01",
            "CDISCPILOT01",
            "CDISCPILOT01",
            "CDISCPILOT01",
            "CDISCPILOT01",
            "CDISCPILOT01",
            "CDISCPILOT01",
            "CDISCPILOT01",
            "CDISCPILOT01",
            "CDISCPILOT01",
            "CDISCPILOT01",
            "CDISCPILOT01",
            "CDISCPILOT01",
            "CDISCPILOT01",
            "CDISCPILOT01",
            "CDISCPILOT01",
            "CDISCPILOT01",
            "CDISCPILOT01",
            "CDISCPILOT01",
            "CDISCPILOT01",
            "CDISCPILOT01",
            "CDISCPILOT01",
            "CDISCPILOT01",
            "CDISCPILOT01",
            "CDISCPILOT01",
            "CDISCPILOT01",
            "CDISCPILOT01",
            "CDISCPILOT01",
            "CDISCPILOT01",
            "CDISCPILOT01",
            "CDISCPILOT01",
            "CDISCPILOT01",
            "CDISCPILOT01",
            "CDISCPILOT01",
            "CDISCPILOT01",
            "CDISCPILOT01",
            "CDISCPILOT01",
            "CDISCPILOT01",
            "CDISCPILOT01",
            "CDISCPILOT01",
            "CDISCPILOT01",
            "CDISCPILOT01",
            "CDISCPILOT01",
            "CDISCPILOT01",
            "CDISCPILOT01",
            "CDISCPILOT01",
            "CDISCPILOT01",
            "CDISCPILOT01",
            "CDISCPILOT01",
            "CDISCPILOT01",
            "CDISCPILOT01",
            "CDISCPILOT01",
            "CDISCPILOT01",
            "CDISCPILOT01",
            "CDISCPILOT01",
            "CDISCPILOT01",
            "CDISCPILOT01",
            "CDISCPILOT01",
            "CDISCPILOT01",
            "CDISCPILOT01",
            "CDISCPILOT01",
            "CDISCPILOT01",
            "CDISCPILOT01",
            "CDISCPILOT01",
            "CDISCPILOT01",
            "CDISCPILOT01",
            "CDISCPILOT01",
            "CDISCPILOT01",
            "CDISCPILOT01",
            "CDISCPILOT01",
            "CDISCPILOT01",
            "CDISCPILOT01",
            "CDISCPILOT01",
            "CDISCPILOT01",
            "CDISCPILOT01",
            "CDISCPILOT01",
            "CDISCPILOT01",
            "CDISCPILOT01",
            "CDISCPILOT01",
            "CDISCPILOT01",
            "CDISCPILOT01",
            "CDISCPILOT01",
            "CDISCPILOT01",
            "CDISCPILOT01",
            "CDISCPILOT01",
            "CDISCPILOT01",
            "CDISCPILOT01",
            "CDISCPILOT01",
            "CDISCPILOT01",
            "CDISCPILOT01",
            "CDISCPILOT01",
            "CDISCPILOT01",
            "CDISCPILOT01",
            "CDISCPILOT01",
            "CDISCPILOT01",
            "CDISCPILOT01",
            "CDISCPILOT01",
            "CDISCPILOT01",
            "CDISCPILOT01",
            "CDISCPILOT01",
            "CDISCPILOT01",
            "CDISCPILOT01",
            "CDISCPILOT01",
            "CDISCPILOT01",
            "CDISCPILOT01",
            "CDISCPILOT01",
            "CDISCPILOT01",
            "CDISCPILOT01",
            "CDISCPILOT01",
            "CDISCPILOT01",
            "CDISCPILOT01",
            "CDISCPILOT01",
            "CDISCPILOT01",
            "CDISCPILOT01",
            "CDISCPILOT01",
            "CDISCPILOT01",
            "CDISCPILOT01",
            "CDISCPILOT01",
            "CDISCPILOT01",
            "CDISCPILOT01",
            "CDISCPILOT01",
            "CDISCPILOT01",
            "CDISCPILOT01",
            "CDISCPILOT01",
            "CDISCPILOT01",
            "CDISCPILOT01",
            "CDISCPILOT01",
            "CDISCPILOT01",
            "CDISCPILOT01",
            "CDISCPILOT01",
            "CDISCPILOT01",
            "CDISCPILOT01",
            "CDISCPILOT01",
            "CDISCPILOT01",
            "CDISCPILOT01",
            "CDISCPILOT01",
            "CDISCPILOT01",
            "CDISCPILOT01",
            "CDISCPILOT01",
            "CDISCPILOT01",
            "CDISCPILOT01",
            "CDISCPILOT01",
            "CDISCPILOT01",
            "CDISCPILOT01",
            "CDISCPILOT01",
            "CDISCPILOT01",
            "CDISCPILOT01",
            "CDISCPILOT01",
            "CDISCPILOT01",
            "CDISCPILOT01",
            "CDISCPILOT01",
            "CDISCPILOT01",
            "CDISCPILOT01",
            "CDISCPILOT01",
            "CDISCPILOT01",
            "CDISCPILOT01",
            "CDISCPILOT01",
            "CDISCPILOT01",
            "CDISCPILOT01",
            "CDISCPILOT01",
            "CDISCPILOT01",
            "CDISCPILOT01",
            "CDISCPILOT01",
            "CDISCPILOT01",
            "CDISCPILOT01",
            "CDISCPILOT01",
            "CDISCPILOT01",
            "CDISCPILOT01",
            "CDISCPILOT01",
            "CDISCPILOT01",
            "CDISCPILOT01",
            "CDISCPILOT01",
            "CDISCPILOT01",
            "CDISCPILOT01",
            "CDISCPILOT01",
            "CDISCPILOT01",
            "CDISCPILOT01",
            "CDISCPILOT01",
            "CDISCPILOT01",
            "CDISCPILOT01",
            "CDISCPILOT01",
            "CDISCPILOT01",
            "CDISCPILOT01",
            "CDISCPILOT01",
            "CDISCPILOT01",
            "CDISCPILOT01",
            "CDISCPILOT01",
            "CDISCPILOT01",
            "CDISCPILOT01",
            "CDISCPILOT01",
            "CDISCPILOT01",
            "CDISCPILOT01",
            "CDISCPILOT01",
            "CDISCPILOT01",
            "CDISCPILOT01",
            "CDISCPILOT01",
            "CDISCPILOT01",
            "CDISCPILOT01",
            "CDISCPILOT01",
            "CDISCPILOT01",
            "CDISCPILOT01",
            "CDISCPILOT01",
            "CDISCPILOT01",
            "CDISCPILOT01",
            "CDISCPILOT01",
            "CDISCPILOT01",
            "CDISCPILOT01",
            "CDISCPILOT01",
            "CDISCPILOT01",
            "CDISCPILOT01",
            "CDISCPILOT01",
            "CDISCPILOT01",
            "CDISCPILOT01",
            "CDISCPILOT01",
            "CDISCPILOT01",
            "CDISCPILOT01",
            "CDISCPILOT01",
            "CDISCPILOT01",
            "CDISCPILOT01",
            "CDISCPILOT01",
            "CDISCPILOT01",
            "CDISCPILOT01",
            "CDISCPILOT01",
            "CDISCPILOT01",
            "CDISCPILOT01",
            "CDISCPILOT01",
            "CDISCPILOT01",
            "CDISCPILOT01",
            "CDISCPILOT01",
            "CDISCPILOT01",
            "CDISCPILOT01",
            "CDISCPILOT01",
            "CDISCPILOT01",
            "CDISCPILOT01",
            "CDISCPILOT01",
            "CDISCPILOT01",
            "CDISCPILOT01",
            "CDISCPILOT01",
            "CDISCPILOT01",
            "CDISCPILOT01",
            "CDISCPILOT01",
            "CDISCPILOT01",
            "CDISCPILOT01",
            "CDISCPILOT01",
            "CDISCPILOT01",
            "CDISCPILOT01",
            "CDISCPILOT01",
            "CDISCPILOT01",
            "CDISCPILOT01",
            "CDISCPILOT01",
            "CDISCPILOT01",
            "CDISCPILOT01",
            "CDISCPILOT01",
            "CDISCPILOT01",
            "CDISCPILOT01",
            "CDISCPILOT01",
            "CDISCPILOT01",
            "CDISCPILOT01",
            "CDISCPILOT01",
            "CDISCPILOT01",
            "CDISCPILOT01",
            "CDISCPILOT01",
            "CDISCPILOT01",
            "CDISCPILOT01",
            "CDISCPILOT01",
            "CDISCPILOT01",
            "CDISCPILOT01",
            "CDISCPILOT01",
            "CDISCPILOT01",
            "CDISCPILOT01",
            "CDISCPILOT01",
            "CDISCPILOT01",
            "CDISCPILOT01",
            "CDISCPILOT01",
            "CDISCPILOT01",
            "CDISCPILOT01",
            "CDISCPILOT01",
            "CDISCPILOT01",
            "CDISCPILOT01",
            "CDISCPILOT01",
            "CDISCPILOT01",
            "CDISCPILOT01",
            "CDISCPILOT01",
            "CDISCPILOT01",
            "CDISCPILOT01",
            "CDISCPILOT01",
            "CDISCPILOT01",
            "CDISCPILOT01",
            "CDISCPILOT01",
            "CDISCPILOT01",
            "CDISCPILOT01",
            "CDISCPILOT01",
            "CDISCPILOT01",
            "CDISCPILOT01",
            "CDISCPILOT01",
            "CDISCPILOT01",
            "CDISCPILOT01",
            "CDISCPILOT01",
            "CDISCPILOT01",
            "CDISCPILOT01",
            "CDISCPILOT01",
            "CDISCPILOT01",
            "CDISCPILOT01",
            "CDISCPILOT01",
            "CDISCPILOT01",
            "CDISCPILOT01",
            "CDISCPILOT01",
            "CDISCPILOT01",
            "CDISCPILOT01",
            "CDISCPILOT01",
            "CDISCPILOT01",
            "CDISCPILOT01",
            "CDISCPILOT01",
            "CDISCPILOT01",
            "CDISCPILOT01",
            "CDISCPILOT01",
            "CDISCPILOT01",
            "CDISCPILOT01",
            "CDISCPILOT01",
            "CDISCPILOT01",
            "CDISCPILOT01",
            "CDISCPILOT01",
            "CDISCPILOT01",
            "CDISCPILOT01",
            "CDISCPILOT01",
            "CDISCPILOT01",
            "CDISCPILOT01",
            "CDISCPILOT01",
            "CDISCPILOT01",
            "CDISCPILOT01",
            "CDISCPILOT01",
            "CDISCPILOT01",
            "CDISCPILOT01",
            "CDISCPILOT01",
            "CDISCPILOT01",
            "CDISCPILOT01",
            "CDISCPILOT01",
            "CDISCPILOT01",
            "CDISCPILOT01",
            "CDISCPILOT01",
            "CDISCPILOT01",
            "CDISCPILOT01",
            "CDISCPILOT01",
            "CDISCPILOT01",
            "CDISCPILOT01",
            "CDISCPILOT01",
            "CDISCPILOT01",
            "CDISCPILOT01",
            "CDISCPILOT01",
            "CDISCPILOT01",
            "CDISCPILOT01",
            "CDISCPILOT01",
            "CDISCPILOT01",
            "CDISCPILOT01",
            "CDISCPILOT01",
            "CDISCPILOT01",
            "CDISCPILOT01",
            "CDISCPILOT01",
            "CDISCPILOT01",
            "CDISCPILOT01",
            "CDISCPILOT01",
            "CDISCPILOT01",
            "CDISCPILOT01",
            "CDISCPILOT01",
            "CDISCPILOT01",
            "CDISCPILOT01",
            "CDISCPILOT01",
            "CDISCPILOT01",
            "CDISCPILOT01",
            "CDISCPILOT01",
            "CDISCPILOT01",
            "CDISCPILOT01",
            "CDISCPILOT01",
            "CDISCPILOT01",
            "CDISCPILOT01",
            "CDISCPILOT01",
            "CDISCPILOT01",
            "CDISCPILOT01",
            "CDISCPILOT01",
            "CDISCPILOT01",
            "CDISCPILOT01",
            "CDISCPILOT01",
            "CDISCPILOT01",
            "CDISCPILOT01",
            "CDISCPILOT01",
            "CDISCPILOT01",
            "CDISCPILOT01",
            "CDISCPILOT01",
            "CDISCPILOT01",
            "CDISCPILOT01",
            "CDISCPILOT01",
            "CDISCPILOT01",
            "CDISCPILOT01",
            "CDISCPILOT01",
            "CDISCPILOT01",
            "CDISCPILOT01",
            "CDISCPILOT01",
            "CDISCPILOT01",
            "CDISCPILOT01",
            "CDISCPILOT01",
            "CDISCPILOT01",
            "CDISCPILOT01",
            "CDISCPILOT01",
            "CDISCPILOT01",
            "CDISCPILOT01",
            "CDISCPILOT01",
            "CDISCPILOT01",
            "CDISCPILOT01",
            "CDISCPILOT01",
            "CDISCPILOT01",
            "CDISCPILOT01",
            "CDISCPILOT01",
            "CDISCPILOT01",
            "CDISCPILOT01",
            "CDISCPILOT01",
            "CDISCPILOT01",
            "CDISCPILOT01",
            "CDISCPILOT01",
            "CDISCPILOT01"
          ],
          "DOMAIN": [
            "LB",
            "LB",
            "LB",
            "LB",
            "LB",
            "LB",
            "LB",
            "LB",
            "LB",
            "LB",
            "LB",
            "LB",
            "LB",
            "LB",
            "LB",
            "LB",
            "LB",
            "LB",
            "LB",
            "LB",
            "LB",
            "LB",
            "LB",
            "LB",
            "LB",
            "LB",
            "LB",
            "LB",
            "LB",
            "LB",
            "LB",
            "LB",
            "LB",
            "LB",
            "LB",
            "LB",
            "LB",
            "LB",
            "LB",
            "LB",
            "LB",
            "LB",
            "LB",
            "LB",
            "LB",
            "LB",
            "LB",
            "LB",
            "LB",
            "LB",
            "LB",
            "LB",
            "LB",
            "LB",
            "LB",
            "LB",
            "LB",
            "LB",
            "LB",
            "LB",
            "LB",
            "LB",
            "LB",
            "LB",
            "LB",
            "LB",
            "LB",
            "LB",
            "LB",
            "LB",
            "LB",
            "LB",
            "LB",
            "LB",
            "LB",
            "LB",
            "LB",
            "LB",
            "LB",
            "LB",
            "LB",
            "LB",
            "LB",
            "LB",
            "LB",
            "LB",
            "LB",
            "LB",
            "LB",
            "LB",
            "LB",
            "LB",
            "LB",
            "LB",
            "LB",
            "LB",
            "LB",
            "LB",
            "LB",
            "LB",
            "LB",
            "LB",
            "LB",
            "LB",
            "LB",
            "LB",
            "LB",
            "LB",
            "LB",
            "LB",
            "LB",
            "LB",
            "LB",
            "LB",
            "LB",
            "LB",
            "LB",
            "LB",
            "LB",
            "LB",
            "LB",
            "LB",
            "LB",
            "LB",
            "LB",
            "LB",
            "LB",
            "LB",
            "LB",
            "LB",
            "LB",
            "LB",
            "LB",
            "LB",
            "LB",
            "LB",
            "LB",
            "LB",
            "LB",
            "LB",
            "LB",
            "LB",
            "LB",
            "LB",
            "LB",
            "LB",
            "LB",
            "LB",
            "LB",
            "LB",
            "LB",
            "LB",
            "LB",
            "LB",
            "LB",
            "LB",
            "LB",
            "LB",
            "LB",
            "LB",
            "LB",
            "LB",
            "LB",
            "LB",
            "LB",
            "LB",
            "LB",
            "LB",
            "LB",
            "LB",
            "LB",
            "LB",
            "LB",
            "LB",
            "LB",
            "LB",
            "LB",
            "LB",
            "LB",
            "LB",
            "LB",
            "LB",
            "LB",
            "LB",
            "LB",
            "LB",
            "LB",
            "LB",
            "LB",
            "LB",
            "LB",
            "LB",
            "LB",
            "LB",
            "LB",
            "LB",
            "LB",
            "LB",
            "LB",
            "LB",
            "LB",
            "LB",
            "LB",
            "LB",
            "LB",
            "LB",
            "LB",
            "LB",
            "LB",
            "LB",
            "LB",
            "LB",
            "LB",
            "LB",
            "LB",
            "LB",
            "LB",
            "LB",
            "LB",
            "LB",
            "LB",
            "LB",
            "LB",
            "LB",
            "LB",
            "LB",
            "LB",
            "LB",
            "LB",
            "LB",
            "LB",
            "LB",
            "LB",
            "LB",
            "LB",
            "LB",
            "LB",
            "LB",
            "LB",
            "LB",
            "LB",
            "LB",
            "LB",
            "LB",
            "LB",
            "LB",
            "LB",
            "LB",
            "LB",
            "LB",
            "LB",
            "LB",
            "LB",
            "LB",
            "LB",
            "LB",
            "LB",
            "LB",
            "LB",
            "LB",
            "LB",
            "LB",
            "LB",
            "LB",
            "LB",
            "LB",
            "LB",
            "LB",
            "LB",
            "LB",
            "LB",
            "LB",
            "LB",
            "LB",
            "LB",
            "LB",
            "LB",
            "LB",
            "LB",
            "LB",
            "LB",
            "LB",
            "LB",
            "LB",
            "LB",
            "LB",
            "LB",
            "LB",
            "LB",
            "LB",
            "LB",
            "LB",
            "LB",
            "LB",
            "LB",
            "LB",
            "LB",
            "LB",
            "LB",
            "LB",
            "LB",
            "LB",
            "LB",
            "LB",
            "LB",
            "LB",
            "LB",
            "LB",
            "LB",
            "LB",
            "LB",
            "LB",
            "LB",
            "LB",
            "LB",
            "LB",
            "LB",
            "LB",
            "LB",
            "LB",
            "LB",
            "LB",
            "LB",
            "LB",
            "LB",
            "LB",
            "LB",
            "LB",
            "LB",
            "LB",
            "LB",
            "LB",
            "LB",
            "LB",
            "LB",
            "LB",
            "LB",
            "LB",
            "LB",
            "LB",
            "LB",
            "LB",
            "LB",
            "LB",
            "LB",
            "LB",
            "LB",
            "LB",
            "LB",
            "LB",
            "LB",
            "LB",
            "LB",
            "LB",
            "LB",
            "LB",
            "LB",
            "LB",
            "LB",
            "LB",
            "LB",
            "LB",
            "LB",
            "LB",
            "LB",
            "LB",
            "LB",
            "LB",
            "LB",
            "LB",
            "LB",
            "LB",
            "LB",
            "LB",
            "LB",
            "LB",
            "LB",
            "LB",
            "LB",
            "LB",
            "LB",
            "LB",
            "LB",
            "LB",
            "LB",
            "LB",
            "LB",
            "LB",
            "LB",
            "LB",
            "LB",
            "LB",
            "LB",
            "LB",
            "LB",
            "LB",
            "LB",
            "LB",
            "LB",
            "LB",
            "LB",
            "LB",
            "LB",
            "LB",
            "LB",
            "LB",
            "LB",
            "LB",
            "LB",
            "LB",
            "LB",
            "LB",
            "LB",
            "LB",
            "LB",
            "LB",
            "LB",
            "LB",
            "LB",
            "LB",
            "LB",
            "LB",
            "LB",
            "LB",
            "LB",
            "LB",
            "LB",
            "LB",
            "LB",
            "LB",
            "LB",
            "LB",
            "LB",
            "LB",
            "LB",
            "LB",
            "LB",
            "LB",
            "LB",
            "LB",
            "LB",
            "LB",
            "LB",
            "LB",
            "LB",
            "LB",
            "LB",
            "LB",
            "LB",
            "LB",
            "LB",
            "LB",
            "LB",
            "LB",
            "LB",
            "LB",
            "LB",
            "LB",
            "LB",
            "LB",
            "LB",
            "LB",
            "LB",
            "LB",
            "LB",
            "LB",
            "LB",
            "LB",
            "LB",
            "LB",
            "LB",
            "LB",
            "LB",
            "LB",
            "LB",
            "LB",
            "LB",
            "LB",
            "LB",
            "LB",
            "LB",
            "LB",
            "LB",
            "LB",
            "LB",
            "LB",
            "LB",
            "LB",
            "LB",
            "LB",
            "LB",
            "LB",
            "LB",
            "LB",
            "LB",
            "LB",
            "LB",
            "LB",
            "LB",
            "LB",
            "LB",
            "LB",
            "LB",
            "LB",
            "LB",
            "LB",
            "LB",
            "LB",
            "LB",
            "LB",
            "LB",
            "LB",
            "LB",
            "LB",
            "LB",
            "LB",
            "LB",
            "LB",
            "LB",
            "LB",
            "LB",
            "LB",
            "LB",
            "LB",
            "LB",
            "LB",
            "LB",
            "LB",
            "LB",
            "LB",
            "LB",
            "LB",
            "LB",
            "LB",
            "LB",
            "LB",
            "LB",
            "LB",
            "LB",
            "LB",
            "LB",
            "LB",
            "LB",
            "LB",
            "LB",
            "LB",
            "LB",
            "LB",
            "LB",
            "LB",
            "LB",
            "LB",
            "LB",
            "LB",
            "LB",
            "LB",
            "LB",
            "LB",
            "LB",
            "LB",
            "LB",
            "LB",
            "LB",
            "LB",
            "LB",
            "LB",
            "LB",
            "LB",
            "LB",
            "LB",
            "LB",
            "LB",
            "LB",
            "LB",
            "LB",
            "LB",
            "LB",
            "LB",
            "LB",
            "LB",
            "LB",
            "LB",
            "LB",
            "LB",
            "LB",
            "LB",
            "LB",
            "LB",
            "LB",
            "LB",
            "LB",
            "LB",
            "LB",
            "LB",
            "LB",
            "LB",
            "LB",
            "LB",
            "LB",
            "LB",
            "LB",
            "LB",
            "LB",
            "LB",
            "LB",
            "LB",
            "LB",
            "LB",
            "LB",
            "LB",
            "LB",
            "LB",
            "LB",
            "LB",
            "LB",
            "LB",
            "LB",
            "LB",
            "LB",
            "LB",
            "LB",
            "LB",
            "LB",
            "LB",
            "LB",
            "LB",
            "LB",
            "LB",
            "LB",
            "LB",
            "LB",
            "LB",
            "LB",
            "LB",
            "LB",
            "LB",
            "LB",
            "LB",
            "LB",
            "LB",
            "LB",
            "LB",
            "LB",
            "LB",
            "LB",
            "LB",
            "LB",
            "LB",
            "LB",
            "LB",
            "LB",
            "LB",
            "LB",
            "LB",
            "LB",
            "LB",
            "LB",
            "LB",
            "LB",
            "LB",
            "LB",
            "LB",
            "LB",
            "LB",
            "LB",
            "LB",
            "LB",
            "LB",
            "LB",
            "LB",
            "LB",
            "LB",
            "LB",
            "LB",
            "LB",
            "LB",
            "LB",
            "LB",
            "LB",
            "LB",
            "LB",
            "LB",
            "LB",
            "LB",
            "LB",
            "LB",
            "LB",
            "LB",
            "LB",
            "LB",
            "LB",
            "LB",
            "LB",
            "LB",
            "LB",
            "LB",
            "LB",
            "LB",
            "LB",
            "LB",
            "LB",
            "LB",
            "LB",
            "LB",
            "LB",
            "LB",
            "LB",
            "LB",
            "LB",
            "LB",
            "LB",
            "LB",
            "LB",
            "LB",
            "LB",
            "LB",
            "LB",
            "LB",
            "LB",
            "LB",
            "LB",
            "LB",
            "LB",
            "LB",
            "LB",
            "LB",
            "LB",
            "LB",
            "LB",
            "LB",
            "LB",
            "LB",
            "LB",
            "LB",
            "LB",
            "LB",
            "LB",
            "LB",
            "LB",
            "LB",
            "LB",
            "LB",
            "LB",
            "LB",
            "LB",
            "LB",
            "LB",
            "LB",
            "LB",
            "LB",
            "LB",
            "LB",
            "LB",
            "LB",
            "LB",
            "LB",
            "LB",
            "LB",
            "LB",
            "LB",
            "LB",
            "LB",
            "LB",
            "LB",
            "LB",
            "LB",
            "LB",
            "LB",
            "LB",
            "LB",
            "LB",
            "LB",
            "LB",
            "LB",
            "LB",
            "LB",
            "LB",
            "LB",
            "LB",
            "LB",
            "LB",
            "LB",
            "LB",
            "LB",
            "LB",
            "LB",
            "LB",
            "LB",
            "LB",
            "LB",
            "LB",
            "LB",
            "LB",
            "LB",
            "LB",
            "LB",
            "LB",
            "LB",
            "LB",
            "LB",
            "LB",
            "LB",
            "LB",
            "LB",
            "LB",
            "LB",
            "LB",
            "LB",
            "LB",
            "LB",
            "LB",
            "LB",
            "LB",
            "LB",
            "LB",
            "LB",
            "LB",
            "LB",
            "LB",
            "LB",
            "LB",
            "LB",
            "LB",
            "LB",
            "LB",
            "LB",
            "LB",
            "LB",
            "LB",
            "LB",
            "LB",
            "LB",
            "LB",
            "LB",
            "LB",
            "LB",
            "LB",
            "LB",
            "LB",
            "LB",
            "LB",
            "LB",
            "LB",
            "LB",
            "LB",
            "LB",
            "LB",
            "LB",
            "LB",
            "LB",
            "LB",
            "LB",
            "LB",
            "LB",
            "LB",
            "LB",
            "LB",
            "LB",
            "LB",
            "LB",
            "LB",
            "LB",
            "LB",
            "LB",
            "LB",
            "LB",
            "LB",
            "LB",
            "LB",
            "LB",
            "LB",
            "LB",
            "LB",
            "LB",
            "LB",
            "LB",
            "LB",
            "LB",
            "LB",
            "LB",
            "LB",
            "LB",
            "LB",
            "LB",
            "LB",
            "LB",
            "LB",
            "LB"
          ],
          "USUBJID": [
            "CDISC004",
            "CDISC004",
            "CDISC004",
            "CDISC004",
            "CDISC004",
            "CDISC004",
            "CDISC004",
            "CDISC004",
            "CDISC004",
            "CDISC004",
            "CDISC004",
            "CDISC004",
            "CDISC004",
            "CDISC004",
            "CDISC004",
            "CDISC004",
            "CDISC004",
            "CDISC004",
            "CDISC004",
            "CDISC004",
            "CDISC004",
            "CDISC004",
            "CDISC004",
            "CDISC004",
            "CDISC004",
            "CDISC004",
            "CDISC004",
            "CDISC004",
            "CDISC004",
            "CDISC004",
            "CDISC004",
            "CDISC004",
            "CDISC004",
            "CDISC004",
            "CDISC004",
            "CDISC004",
            "CDISC004",
            "CDISC004",
            "CDISC004",
            "CDISC004",
            "CDISC004",
            "CDISC004",
            "CDISC004",
            "CDISC004",
            "CDISC004",
            "CDISC004",
            "CDISC004",
            "CDISC004",
            "CDISC004",
            "CDISC004",
            "CDISC004",
            "CDISC004",
            "CDISC004",
            "CDISC004",
            "CDISC004",
            "CDISC004",
            "CDISC004",
            "CDISC004",
            "CDISC004",
            "CDISC004",
            "CDISC004",
            "CDISC004",
            "CDISC004",
            "CDISC004",
            "CDISC004",
            "CDISC004",
            "CDISC004",
            "CDISC004",
            "CDISC004",
            "CDISC004",
            "CDISC004",
            "CDISC004",
            "CDISC004",
            "CDISC004",
            "CDISC004",
            "CDISC004",
            "CDISC004",
            "CDISC004",
            "CDISC004",
            "CDISC004",
            "CDISC004",
            "CDISC004",
            "CDISC004",
            "CDISC004",
            "CDISC004",
            "CDISC004",
            "CDISC004",
            "CDISC004",
            "CDISC004",
            "CDISC004",
            "CDISC004",
            "CDISC004",
            "CDISC004",
            "CDISC004",
            "CDISC004",
            "CDISC004",
            "CDISC004",
            "CDISC004",
            "CDISC004",
            "CDISC004",
            "CDISC004",
            "CDISC004",
            "CDISC004",
            "CDISC004",
            "CDISC004",
            "CDISC004",
            "CDISC004",
            "CDISC004",
            "CDISC004",
            "CDISC004",
            "CDISC004",
            "CDISC004",
            "CDISC004",
            "CDISC004",
            "CDISC004",
            "CDISC004",
            "CDISC004",
            "CDISC004",
            "CDISC004",
            "CDISC004",
            "CDISC004",
            "CDISC004",
            "CDISC004",
            "CDISC004",
            "CDISC004",
            "CDISC004",
            "CDISC004",
            "CDISC004",
            "CDISC004",
            "CDISC004",
            "CDISC004",
            "CDISC004",
            "CDISC004",
            "CDISC004",
            "CDISC004",
            "CDISC004",
            "CDISC004",
            "CDISC004",
            "CDISC004",
            "CDISC004",
            "CDISC004",
            "CDISC004",
            "CDISC004",
            "CDISC004",
            "CDISC004",
            "CDISC004",
            "CDISC004",
            "CDISC004",
            "CDISC004",
            "CDISC004",
            "CDISC004",
            "CDISC004",
            "CDISC004",
            "CDISC004",
            "CDISC004",
            "CDISC004",
            "CDISC004",
            "CDISC004",
            "CDISC004",
            "CDISC004",
            "CDISC004",
            "CDISC004",
            "CDISC004",
            "CDISC004",
            "CDISC004",
            "CDISC004",
            "CDISC004",
            "CDISC004",
            "CDISC004",
            "CDISC004",
            "CDISC004",
            "CDISC004",
            "CDISC004",
            "CDISC004",
            "CDISC004",
            "CDISC004",
            "CDISC004",
            "CDISC004",
            "CDISC004",
            "CDISC004",
            "CDISC004",
            "CDISC004",
            "CDISC004",
            "CDISC004",
            "CDISC004",
            "CDISC004",
            "CDISC004",
            "CDISC004",
            "CDISC004",
            "CDISC004",
            "CDISC004",
            "CDISC004",
            "CDISC004",
            "CDISC004",
            "CDISC004",
            "CDISC004",
            "CDISC004",
            "CDISC004",
            "CDISC004",
            "CDISC004",
            "CDISC004",
            "CDISC004",
            "CDISC004",
            "CDISC004",
            "CDISC004",
            "CDISC004",
            "CDISC004",
            "CDISC004",
            "CDISC004",
            "CDISC004",
            "CDISC004",
            "CDISC004",
            "CDISC004",
            "CDISC004",
            "CDISC004",
            "CDISC004",
            "CDISC004",
            "CDISC004",
            "CDISC004",
            "CDISC004",
            "CDISC004",
            "CDISC004",
            "CDISC004",
            "CDISC004",
            "CDISC004",
            "CDISC004",
            "CDISC004",
            "CDISC004",
            "CDISC004",
            "CDISC004",
            "CDISC004",
            "CDISC004",
            "CDISC004",
            "CDISC004",
            "CDISC004",
            "CDISC004",
            "CDISC004",
            "CDISC004",
            "CDISC004",
            "CDISC004",
            "CDISC004",
            "CDISC004",
            "CDISC004",
            "CDISC004",
            "CDISC004",
            "CDISC004",
            "CDISC004",
            "CDISC004",
            "CDISC004",
            "CDISC004",
            "CDISC004",
            "CDISC004",
            "CDISC004",
            "CDISC004",
            "CDISC004",
            "CDISC004",
            "CDISC004",
            "CDISC004",
            "CDISC004",
            "CDISC004",
            "CDISC004",
            "CDISC004",
            "CDISC004",
            "CDISC004",
            "CDISC004",
            "CDISC004",
            "CDISC004",
            "CDISC004",
            "CDISC004",
            "CDISC004",
            "CDISC004",
            "CDISC004",
            "CDISC004",
            "CDISC004",
            "CDISC004",
            "CDISC004",
            "CDISC004",
            "CDISC004",
            "CDISC004",
            "CDISC004",
            "CDISC004",
            "CDISC004",
            "CDISC004",
            "CDISC004",
            "CDISC004",
            "CDISC004",
            "CDISC004",
            "CDISC004",
            "CDISC004",
            "CDISC004",
            "CDISC004",
            "CDISC004",
            "CDISC005",
            "CDISC005",
            "CDISC005",
            "CDISC005",
            "CDISC005",
            "CDISC005",
            "CDISC005",
            "CDISC005",
            "CDISC005",
            "CDISC005",
            "CDISC005",
            "CDISC005",
            "CDISC005",
            "CDISC005",
            "CDISC005",
            "CDISC005",
            "CDISC005",
            "CDISC005",
            "CDISC005",
            "CDISC005",
            "CDISC005",
            "CDISC005",
            "CDISC005",
            "CDISC005",
            "CDISC005",
            "CDISC005",
            "CDISC005",
            "CDISC005",
            "CDISC005",
            "CDISC005",
            "CDISC005",
            "CDISC005",
            "CDISC005",
            "CDISC005",
            "CDISC005",
            "CDISC005",
            "CDISC005",
            "CDISC005",
            "CDISC005",
            "CDISC005",
            "CDISC005",
            "CDISC005",
            "CDISC005",
            "CDISC005",
            "CDISC005",
            "CDISC005",
            "CDISC005",
            "CDISC005",
            "CDISC005",
            "CDISC005",
            "CDISC005",
            "CDISC005",
            "CDISC005",
            "CDISC005",
            "CDISC005",
            "CDISC005",
            "CDISC005",
            "CDISC005",
            "CDISC005",
            "CDISC005",
            "CDISC005",
            "CDISC005",
            "CDISC005",
            "CDISC005",
            "CDISC005",
            "CDISC005",
            "CDISC005",
            "CDISC005",
            "CDISC005",
            "CDISC005",
            "CDISC005",
            "CDISC005",
            "CDISC005",
            "CDISC005",
            "CDISC005",
            "CDISC005",
            "CDISC005",
            "CDISC005",
            "CDISC005",
            "CDISC005",
            "CDISC005",
            "CDISC005",
            "CDISC005",
            "CDISC005",
            "CDISC005",
            "CDISC005",
            "CDISC005",
            "CDISC005",
            "CDISC005",
            "CDISC005",
            "CDISC005",
            "CDISC005",
            "CDISC005",
            "CDISC005",
            "CDISC005",
            "CDISC005",
            "CDISC005",
            "CDISC005",
            "CDISC005",
            "CDISC005",
            "CDISC005",
            "CDISC005",
            "CDISC005",
            "CDISC005",
            "CDISC005",
            "CDISC005",
            "CDISC005",
            "CDISC005",
            "CDISC005",
            "CDISC005",
            "CDISC005",
            "CDISC005",
            "CDISC005",
            "CDISC005",
            "CDISC005",
            "CDISC005",
            "CDISC005",
            "CDISC005",
            "CDISC005",
            "CDISC005",
            "CDISC005",
            "CDISC005",
            "CDISC005",
            "CDISC005",
            "CDISC005",
            "CDISC005",
            "CDISC005",
            "CDISC005",
            "CDISC005",
            "CDISC005",
            "CDISC005",
            "CDISC005",
            "CDISC005",
            "CDISC005",
            "CDISC005",
            "CDISC005",
            "CDISC005",
            "CDISC005",
            "CDISC005",
            "CDISC005",
            "CDISC005",
            "CDISC005",
            "CDISC005",
            "CDISC005",
            "CDISC005",
            "CDISC005",
            "CDISC005",
            "CDISC005",
            "CDISC005",
            "CDISC005",
            "CDISC005",
            "CDISC005",
            "CDISC005",
            "CDISC005",
            "CDISC005",
            "CDISC005",
            "CDISC005",
            "CDISC005",
            "CDISC005",
            "CDISC005",
            "CDISC005",
            "CDISC005",
            "CDISC005",
            "CDISC005",
            "CDISC005",
            "CDISC005",
            "CDISC005",
            "CDISC005",
            "CDISC005",
            "CDISC005",
            "CDISC005",
            "CDISC005",
            "CDISC005",
            "CDISC005",
            "CDISC005",
            "CDISC005",
            "CDISC005",
            "CDISC005",
            "CDISC005",
            "CDISC005",
            "CDISC005",
            "CDISC005",
            "CDISC005",
            "CDISC005",
            "CDISC005",
            "CDISC005",
            "CDISC005",
            "CDISC005",
            "CDISC005",
            "CDISC005",
            "CDISC005",
            "CDISC005",
            "CDISC005",
            "CDISC005",
            "CDISC005",
            "CDISC005",
            "CDISC005",
            "CDISC005",
            "CDISC005",
            "CDISC005",
            "CDISC005",
            "CDISC005",
            "CDISC005",
            "CDISC005",
            "CDISC005",
            "CDISC005",
            "CDISC005",
            "CDISC005",
            "CDISC005",
            "CDISC005",
            "CDISC005",
            "CDISC005",
            "CDISC005",
            "CDISC005",
            "CDISC005",
            "CDISC005",
            "CDISC005",
            "CDISC005",
            "CDISC005",
            "CDISC005",
            "CDISC005",
            "CDISC005",
            "CDISC005",
            "CDISC005",
            "CDISC005",
            "CDISC005",
            "CDISC005",
            "CDISC005",
            "CDISC005",
            "CDISC005",
            "CDISC005",
            "CDISC005",
            "CDISC005",
            "CDISC005",
            "CDISC005",
            "CDISC005",
            "CDISC005",
            "CDISC005",
            "CDISC005",
            "CDISC005",
            "CDISC005",
            "CDISC005",
            "CDISC005",
            "CDISC005",
            "CDISC005",
            "CDISC005",
            "CDISC005",
            "CDISC005",
            "CDISC005",
            "CDISC005",
            "CDISC005",
            "CDISC005",
            "CDISC005",
            "CDISC005",
            "CDISC005",
            "CDISC005",
            "CDISC005",
            "CDISC005",
            "CDISC005",
            "CDISC005",
            "CDISC005",
            "CDISC005",
            "CDISC005",
            "CDISC005",
            "CDISC005",
            "CDISC005",
            "CDISC005",
            "CDISC005",
            "CDISC005",
            "CDISC005",
            "CDISC005",
            "CDISC005",
            "CDISC005",
            "CDISC005",
            "CDISC005",
            "CDISC005",
            "CDISC005",
            "CDISC005",
            "CDISC005",
            "CDISC005",
            "CDISC005",
            "CDISC005",
            "CDISC005",
            "CDISC005",
            "CDISC005",
            "CDISC005",
            "CDISC005",
            "CDISC005",
            "CDISC005",
            "CDISC005",
            "CDISC005",
            "CDISC005",
            "CDISC005",
            "CDISC005",
            "CDISC005",
            "CDISC005",
            "CDISC005",
            "CDISC005",
            "CDISC005",
            "CDISC005",
            "CDISC005",
            "CDISC005",
            "CDISC005",
            "CDISC005",
            "CDISC005",
            "CDISC005",
            "CDISC005",
            "CDISC005",
            "CDISC005",
            "CDISC005",
            "CDISC005",
            "CDISC005",
            "CDISC005",
            "CDISC005",
            "CDISC005",
            "CDISC005",
            "CDISC005",
            "CDISC005",
            "CDISC005",
            "CDISC005",
            "CDISC005",
            "CDISC005",
            "CDISC008",
            "CDISC008",
            "CDISC008",
            "CDISC008",
            "CDISC008",
            "CDISC008",
            "CDISC008",
            "CDISC008",
            "CDISC008",
            "CDISC008",
            "CDISC008",
            "CDISC008",
            "CDISC008",
            "CDISC008",
            "CDISC008",
            "CDISC008",
            "CDISC008",
            "CDISC008",
            "CDISC008",
            "CDISC008",
            "CDISC008",
            "CDISC008",
            "CDISC008",
            "CDISC008",
            "CDISC008",
            "CDISC008",
            "CDISC008",
            "CDISC008",
            "CDISC008",
            "CDISC008",
            "CDISC008",
            "CDISC008",
            "CDISC008",
            "CDISC008",
            "CDISC008",
            "CDISC008",
            "CDISC008",
            "CDISC008",
            "CDISC008",
            "CDISC008",
            "CDISC008",
            "CDISC008",
            "CDISC008",
            "CDISC008",
            "CDISC008",
            "CDISC008",
            "CDISC008",
            "CDISC008",
            "CDISC008",
            "CDISC008",
            "CDISC008",
            "CDISC008",
            "CDISC008",
            "CDISC008",
            "CDISC008",
            "CDISC008",
            "CDISC008",
            "CDISC008",
            "CDISC008",
            "CDISC008",
            "CDISC008",
            "CDISC008",
            "CDISC008",
            "CDISC008",
            "CDISC008",
            "CDISC008",
            "CDISC008",
            "CDISC008",
            "CDISC008",
            "CDISC008",
            "CDISC008",
            "CDISC008",
            "CDISC008",
            "CDISC008",
            "CDISC008",
            "CDISC008",
            "CDISC008",
            "CDISC008",
            "CDISC008",
            "CDISC008",
            "CDISC008",
            "CDISC008",
            "CDISC008",
            "CDISC008",
            "CDISC008",
            "CDISC008",
            "CDISC008",
            "CDISC008",
            "CDISC008",
            "CDISC008",
            "CDISC008",
            "CDISC008",
            "CDISC008",
            "CDISC008",
            "CDISC008",
            "CDISC008",
            "CDISC008",
            "CDISC008",
            "CDISC008",
            "CDISC008",
            "CDISC008",
            "CDISC008",
            "CDISC008",
            "CDISC008",
            "CDISC008",
            "CDISC008",
            "CDISC008",
            "CDISC008",
            "CDISC008",
            "CDISC008",
            "CDISC008",
            "CDISC008",
            "CDISC008",
            "CDISC008",
            "CDISC008",
            "CDISC008",
            "CDISC008",
            "CDISC008",
            "CDISC008",
            "CDISC008",
            "CDISC008",
            "CDISC008",
            "CDISC008",
            "CDISC008",
            "CDISC008",
            "CDISC008",
            "CDISC008",
            "CDISC008",
            "CDISC008",
            "CDISC008",
            "CDISC008",
            "CDISC008",
            "CDISC008",
            "CDISC008",
            "CDISC008",
            "CDISC008",
            "CDISC008",
            "CDISC008",
            "CDISC008",
            "CDISC008",
            "CDISC008",
            "CDISC008",
            "CDISC008",
            "CDISC008",
            "CDISC008",
            "CDISC008",
            "CDISC008",
            "CDISC008",
            "CDISC008",
            "CDISC008",
            "CDISC008",
            "CDISC008",
            "CDISC008",
            "CDISC008",
            "CDISC008",
            "CDISC008",
            "CDISC008",
            "CDISC008",
            "CDISC008",
            "CDISC008",
            "CDISC008",
            "CDISC008",
            "CDISC008",
            "CDISC008",
            "CDISC008",
            "CDISC008",
            "CDISC008",
            "CDISC008",
            "CDISC008",
            "CDISC008",
            "CDISC008",
            "CDISC008",
            "CDISC008",
            "CDISC008",
            "CDISC008",
            "CDISC008",
            "CDISC008",
            "CDISC008",
            "CDISC008",
            "CDISC008",
            "CDISC008",
            "CDISC008",
            "CDISC008",
            "CDISC008",
            "CDISC008",
            "CDISC008",
            "CDISC008",
            "CDISC008",
            "CDISC008",
            "CDISC008",
            "CDISC008",
            "CDISC008",
            "CDISC008",
            "CDISC008",
            "CDISC008",
            "CDISC008",
            "CDISC008",
            "CDISC008",
            "CDISC008",
            "CDISC008",
            "CDISC008",
            "CDISC008",
            "CDISC008",
            "CDISC008",
            "CDISC008",
            "CDISC008",
            "CDISC008",
            "CDISC008",
            "CDISC008",
            "CDISC008",
            "CDISC008",
            "CDISC008",
            "CDISC008",
            "CDISC008",
            "CDISC008",
            "CDISC008",
            "CDISC008",
            "CDISC008",
            "CDISC008",
            "CDISC008",
            "CDISC008",
            "CDISC008",
            "CDISC008",
            "CDISC008",
            "CDISC008",
            "CDISC008",
            "CDISC008",
            "CDISC008",
            "CDISC008",
            "CDISC008",
            "CDISC008",
            "CDISC008",
            "CDISC008",
            "CDISC008",
            "CDISC008",
            "CDISC008",
            "CDISC008",
            "CDISC008",
            "CDISC008",
            "CDISC008",
            "CDISC008",
            "CDISC008",
            "CDISC008",
            "CDISC008",
            "CDISC008",
            "CDISC008",
            "CDISC008",
            "CDISC008",
            "CDISC008",
            "CDISC008",
            "CDISC008",
            "CDISC008",
            "CDISC008",
            "CDISC008",
            "CDISC008",
            "CDISC008",
            "CDISC008",
            "CDISC008",
            "CDISC008",
            "CDISC008",
            "CDISC008",
            "CDISC008",
            "CDISC008",
            "CDISC008",
            "CDISC008",
            "CDISC008",
            "CDISC008",
            "CDISC008",
            "CDISC008",
            "CDISC008",
            "CDISC008",
            "CDISC008",
            "CDISC008",
            "CDISC008"
          ],
          "LBSEQ": [
            1,
            2,
            3,
            4,
            5,
            6,
            7,
            8,
            9,
            10,
            11,
            12,
            13,
            14,
            15,
            16,
            17,
            18,
            19,
            20,
            21,
            22,
            23,
            24,
            25,
            26,
            27,
            28,
            29,
            30,
            31,
            32,
            33,
            34,
            35,
            36,
            37,
            38,
            39,
            40,
            41,
            42,
            43,
            44,
            45,
            46,
            47,
            48,
            49,
            50,
            51,
            52,
            53,
            54,
            55,
            56,
            57,
            58,
            59,
            60,
            61,
            62,
            63,
            64,
            65,
            66,
            67,
            68,
            69,
            70,
            71,
            72,
            73,
            74,
            75,
            76,
            77,
            78,
            79,
            80,
            81,
            82,
            83,
            84,
            85,
            86,
            87,
            88,
            89,
            90,
            91,
            92,
            93,
            94,
            95,
            96,
            97,
            98,
            99,
            100,
            101,
            102,
            103,
            104,
            105,
            106,
            107,
            108,
            109,
            110,
            111,
            112,
            113,
            114,
            115,
            116,
            117,
            118,
            119,
            120,
            121,
            122,
            123,
            124,
            125,
            126,
            127,
            128,
            129,
            130,
            131,
            132,
            133,
            134,
            135,
            136,
            137,
            138,
            139,
            140,
            141,
            142,
            143,
            144,
            145,
            146,
            147,
            148,
            149,
            150,
            151,
            152,
            153,
            154,
            155,
            156,
            157,
            158,
            159,
            160,
            161,
            162,
            163,
            164,
            165,
            166,
            167,
            168,
            169,
            170,
            171,
            172,
            173,
            174,
            175,
            176,
            177,
            178,
            179,
            180,
            181,
            182,
            183,
            184,
            185,
            186,
            187,
            188,
            189,
            190,
            191,
            192,
            193,
            194,
            195,
            196,
            197,
            198,
            199,
            200,
            201,
            202,
            203,
            204,
            205,
            206,
            207,
            208,
            209,
            210,
            211,
            212,
            213,
            214,
            215,
            216,
            217,
            218,
            219,
            220,
            221,
            222,
            223,
            224,
            225,
            226,
            227,
            228,
            229,
            230,
            231,
            232,
            233,
            234,
            235,
            236,
            237,
            238,
            239,
            240,
            241,
            242,
            243,
            244,
            245,
            246,
            247,
            248,
            249,
            250,
            251,
            252,
            253,
            254,
            255,
            256,
            257,
            258,
            259,
            260,
            261,
            262,
            263,
            264,
            265,
            266,
            267,
            268,
            269,
            270,
            271,
            272,
            273,
            274,
            275,
            276,
            277,
            278,
            279,
            280,
            281,
            282,
            283,
            284,
            285,
            286,
            287,
            288,
            289,
            290,
            291,
            292,
            1,
            2,
            3,
            4,
            5,
            6,
            7,
            8,
            9,
            10,
            11,
            12,
            13,
            14,
            15,
            16,
            17,
            18,
            19,
            20,
            21,
            22,
            23,
            24,
            25,
            26,
            27,
            28,
            29,
            30,
            31,
            32,
            33,
            34,
            35,
            36,
            37,
            38,
            39,
            40,
            41,
            42,
            43,
            44,
            45,
            46,
            47,
            48,
            49,
            50,
            51,
            52,
            53,
            54,
            55,
            56,
            57,
            58,
            59,
            60,
            61,
            62,
            63,
            64,
            65,
            66,
            67,
            68,
            69,
            70,
            71,
            72,
            73,
            74,
            75,
            76,
            77,
            78,
            79,
            80,
            81,
            82,
            83,
            84,
            85,
            86,
            87,
            88,
            89,
            90,
            91,
            92,
            93,
            94,
            95,
            96,
            97,
            98,
            99,
            100,
            101,
            102,
            103,
            104,
            105,
            106,
            107,
            108,
            109,
            110,
            111,
            112,
            113,
            114,
            115,
            116,
            117,
            118,
            119,
            120,
            121,
            122,
            123,
            124,
            125,
            126,
            127,
            128,
            129,
            130,
            131,
            132,
            133,
            134,
            135,
            136,
            137,
            138,
            139,
            140,
            141,
            142,
            143,
            144,
            145,
            146,
            147,
            148,
            149,
            150,
            151,
            152,
            153,
            154,
            155,
            156,
            157,
            158,
            159,
            160,
            161,
            162,
            163,
            164,
            165,
            166,
            167,
            168,
            169,
            170,
            171,
            172,
            173,
            174,
            175,
            176,
            177,
            178,
            179,
            180,
            181,
            182,
            183,
            184,
            185,
            186,
            187,
            188,
            189,
            190,
            191,
            192,
            193,
            194,
            195,
            196,
            197,
            198,
            199,
            200,
            201,
            202,
            203,
            204,
            205,
            206,
            207,
            208,
            209,
            210,
            211,
            212,
            213,
            214,
            215,
            216,
            217,
            218,
            219,
            220,
            221,
            222,
            223,
            224,
            225,
            226,
            227,
            228,
            229,
            230,
            231,
            232,
            233,
            234,
            235,
            236,
            237,
            238,
            239,
            240,
            241,
            242,
            243,
            244,
            245,
            246,
            247,
            248,
            249,
            250,
            251,
            252,
            253,
            254,
            255,
            256,
            257,
            258,
            259,
            260,
            261,
            262,
            263,
            264,
            265,
            266,
            267,
            268,
            269,
            270,
            271,
            272,
            273,
            274,
            275,
            276,
            277,
            278,
            279,
            280,
            281,
            282,
            283,
            284,
            285,
            286,
            287,
            288,
            289,
            290,
            291,
            292,
            293,
            294,
            295,
            296,
            297,
            298,
            299,
            300,
            301,
            302,
            303,
            304,
            305,
            306,
            307,
            308,
            309,
            310,
            311,
            312,
            313,
            314,
            315,
            316,
            317,
            318,
            319,
            320,
            321,
            322,
            1,
            2,
            3,
            4,
            5,
            6,
            7,
            8,
            9,
            10,
            11,
            12,
            13,
            14,
            15,
            16,
            17,
            18,
            19,
            20,
            21,
            22,
            23,
            24,
            25,
            26,
            27,
            28,
            29,
            30,
            31,
            32,
            33,
            34,
            35,
            36,
            37,
            38,
            39,
            40,
            41,
            42,
            43,
            44,
            45,
            46,
            47,
            48,
            49,
            50,
            51,
            52,
            53,
            54,
            55,
            56,
            57,
            58,
            59,
            60,
            61,
            62,
            63,
            64,
            65,
            66,
            67,
            68,
            69,
            70,
            71,
            72,
            73,
            74,
            75,
            76,
            77,
            78,
            79,
            80,
            81,
            82,
            83,
            84,
            85,
            86,
            87,
            88,
            89,
            90,
            91,
            92,
            93,
            94,
            95,
            96,
            97,
            98,
            99,
            100,
            101,
            102,
            103,
            104,
            105,
            106,
            107,
            108,
            109,
            110,
            111,
            112,
            113,
            114,
            115,
            116,
            117,
            118,
            119,
            120,
            121,
            122,
            123,
            124,
            125,
            126,
            127,
            128,
            129,
            130,
            131,
            132,
            133,
            134,
            135,
            136,
            137,
            138,
            139,
            140,
            141,
            142,
            143,
            144,
            145,
            146,
            147,
            148,
            149,
            150,
            151,
            152,
            153,
            154,
            155,
            156,
            157,
            158,
            159,
            160,
            161,
            162,
            163,
            164,
            165,
            166,
            167,
            168,
            169,
            170,
            171,
            172,
            173,
            174,
            175,
            176,
            177,
            178,
            179,
            180,
            181,
            182,
            183,
            184,
            185,
            186,
            187,
            188,
            189,
            190,
            191,
            192,
            193,
            194,
            195,
            196,
            197,
            198,
            199,
            200,
            201,
            202,
            203,
            204,
            205,
            206,
            207,
            208,
            209,
            210,
            211,
            212,
            213,
            214,
            215,
            216,
            217,
            218,
            219,
            220,
            221,
            222,
            223,
            224,
            225,
            226,
            227,
            228,
            229,
            230,
            231,
            232,
            233,
            234,
            235,
            236,
            237,
            238,
            239,
            240,
            241,
            242,
            243,
            244,
            245,
            246,
            247,
            248,
            249,
            250,
            251,
            252,
            253,
            254,
            255,
            256,
            257,
            258,
            259,
            260,
            261,
            262,
            263,
            264,
            265,
            266,
            267,
            268,
            269,
            270,
            271,
            272,
            273,
            274
          ],
          "LBTESTCD": [
            "ALB",
            "ALP",
            "ALT",
            "AST",
            "BASO",
            "BILI",
            "UREAN",
            "CA",
            "CHOL",
            "CK",
            "CL",
            "COLOR",
            "CREAT",
            "EOS",
            "GGT",
            "GLUC",
            "HCT",
            "HGB",
            "K",
            "KETONES",
            "LYM",
            "MCH",
            "MCHC",
            "MCV",
            "MONO",
            "SODIUM",
            "PH",
            "PHOS",
            "PLAT",
            "PROT",
            "RBC",
            "SPGRAV",
            "TSH",
            "URATE",
            "UROBIL",
            "VITB12",
            "WBC",
            "ALB",
            "ALP",
            "ALT",
            "AST",
            "BASO",
            "BILI",
            "UREAN",
            "CA",
            "CHOL",
            "CK",
            "CL",
            "COLOR",
            "CREAT",
            "EOS",
            "GGT",
            "GLUC",
            "HCT",
            "HGB",
            "K",
            "KETONES",
            "LYM",
            "MCH",
            "MCHC",
            "MCV",
            "MONO",
            "SODIUM",
            "PH",
            "PHOS",
            "PLAT",
            "PROT",
            "RBC",
            "SPGRAV",
            "URATE",
            "UROBIL",
            "WBC",
            "ALB",
            "ALP",
            "ALT",
            "AST",
            "BASO",
            "BILI",
            "UREAN",
            "CA",
            "CHOL",
            "CK",
            "CL",
            "CREAT",
            "EOS",
            "GGT",
            "GLUC",
            "HCT",
            "HGB",
            "K",
            "LYM",
            "MCH",
            "MCHC",
            "MCV",
            "MONO",
            "SODIUM",
            "PHOS",
            "PLAT",
            "PROT",
            "RBC",
            "URATE",
            "WBC",
            "ALB",
            "ALP",
            "ALT",
            "AST",
            "BASO",
            "BILI",
            "UREAN",
            "CA",
            "CHOL",
            "CK",
            "CL",
            "CREAT",
            "EOS",
            "GGT",
            "GLUC",
            "HCT",
            "HGB",
            "K",
            "LYM",
            "MCH",
            "MCHC",
            "MCV",
            "MONO",
            "SODIUM",
            "PHOS",
            "PLAT",
            "PROT",
            "RBC",
            "URATE",
            "WBC",
            "ALB",
            "ALP",
            "ALT",
            "AST",
            "BASO",
            "BILI",
            "UREAN",
            "CA",
            "CHOL",
            "CK",
            "CL",
            "CREAT",
            "EOS",
            "GGT",
            "GLUC",
            "HCT",
            "HGB",
            "K",
            "LYM",
            "MCH",
            "MCHC",
            "MCV",
            "MONO",
            "SODIUM",
            "PHOS",
            "PLAT",
            "PROT",
            "RBC",
            "URATE",
            "WBC",
            "ALB",
            "ALP",
            "ALT",
            "AST",
            "BASO",
            "BILI",
            "UREAN",
            "CA",
            "CHOL",
            "CK",
            "CL",
            "COLOR",
            "CREAT",
            "EOS",
            "GGT",
            "GLUC",
            "HCT",
            "HGB",
            "K",
            "KETONES",
            "LYM",
            "MCH",
            "MCHC",
            "MCV",
            "MONO",
            "SODIUM",
            "PH",
            "PHOS",
            "PLAT",
            "PROT",
            "RBC",
            "SPGRAV",
            "URATE",
            "UROBIL",
            "WBC",
            "ALB",
            "ALP",
            "ALT",
            "AST",
            "BASO",
            "BILI",
            "UREAN",
            "CA",
            "CHOL",
            "CK",
            "CL",
            "CREAT",
            "EOS",
            "GGT",
            "GLUC",
            "HCT",
            "HGB",
            "K",
            "LYM",
            "MCH",
            "MCHC",
            "MCV",
            "MONO",
            "SODIUM",
            "PHOS",
            "PLAT",
            "PROT",
            "RBC",
            "URATE",
            "WBC",
            "ALB",
            "ALP",
            "ALT",
            "AST",
            "BASO",
            "BILI",
            "UREAN",
            "CA",
            "CHOL",
            "CK",
            "CL",
            "CREAT",
            "EOS",
            "GGT",
            "GLUC",
            "HCT",
            "HGB",
            "K",
            "LYM",
            "MCH",
            "MCHC",
            "MCV",
            "MONO",
            "SODIUM",
            "PHOS",
            "PLAT",
            "PROT",
            "RBC",
            "URATE",
            "WBC",
            "ALB",
            "ALP",
            "ALT",
            "AST",
            "BASO",
            "BILI",
            "UREAN",
            "CA",
            "CHOL",
            "CK",
            "CL",
            "COLOR",
            "CREAT",
            "EOS",
            "GGT",
            "GLUC",
            "HCT",
            "HGB",
            "K",
            "KETONES",
            "LYM",
            "MCH",
            "MCHC",
            "MCV",
            "MONO",
            "SODIUM",
            "PH",
            "PHOS",
            "PLAT",
            "PROT",
            "RBC",
            "SPGRAV",
            "URATE",
            "UROBIL",
            "WBC",
            "ALB",
            "ALP",
            "ALT",
            "AST",
            "BASO",
            "BILI",
            "UREAN",
            "CA",
            "CHOL",
            "CK",
            "CL",
            "COLOR",
            "CREAT",
            "EOS",
            "GGT",
            "GLUC",
            "HCT",
            "HGB",
            "K",
            "KETONES",
            "LYM",
            "MCH",
            "MCHC",
            "MCV",
            "MONO",
            "SODIUM",
            "PH",
            "PHOS",
            "PLAT",
            "PROT",
            "RBC",
            "SPGRAV",
            "TSH",
            "URATE",
            "UROBIL",
            "VITB12",
            "WBC",
            "ALB",
            "ALP",
            "ALT",
            "AST",
            "BASO",
            "BILI",
            "UREAN",
            "CA",
            "CHOL",
            "CK",
            "CL",
            "COLOR",
            "CREAT",
            "EOS",
            "GGT",
            "GLUC",
            "HCT",
            "HGB",
            "K",
            "KETONES",
            "LYM",
            "MCH",
            "MCHC",
            "MCV",
            "MONO",
            "SODIUM",
            "PH",
            "PHOS",
            "PLAT",
            "PROT",
            "RBC",
            "SPGRAV",
            "URATE",
            "UROBIL",
            "WBC",
            "ALB",
            "ALP",
            "ALT",
            "AST",
            "BASO",
            "BILI",
            "UREAN",
            "CA",
            "CHOL",
            "CK",
            "CL",
            "CREAT",
            "EOS",
            "GGT",
            "GLUC",
            "HCT",
            "HGB",
            "K",
            "LYM",
            "MCH",
            "MCHC",
            "MCV",
            "MONO",
            "SODIUM",
            "PHOS",
            "PLAT",
            "PROT",
            "RBC",
            "URATE",
            "WBC",
            "ALB",
            "ALP",
            "ALT",
            "AST",
            "BASO",
            "BILI",
            "UREAN",
            "CA",
            "CHOL",
            "CK",
            "CL",
            "CREAT",
            "EOS",
            "GGT",
            "GLUC",
            "HCT",
            "HGB",
            "K",
            "LYM",
            "MCH",
            "MCHC",
            "MCV",
            "MONO",
            "SODIUM",
            "PHOS",
            "PLAT",
            "PROT",
            "RBC",
            "URATE",
            "WBC",
            "ALB",
            "ALP",
            "ALT",
            "AST",
            "BASO",
            "BILI",
            "UREAN",
            "CA",
            "CHOL",
            "CK",
            "CL",
            "CREAT",
            "EOS",
            "GGT",
            "GLUC",
            "HCT",
            "HGB",
            "K",
            "LYM",
            "MCH",
            "MCHC",
            "MCV",
            "MONO",
            "SODIUM",
            "PHOS",
            "PLAT",
            "PROT",
            "RBC",
            "URATE",
            "WBC",
            "ALB",
            "ALP",
            "ALT",
            "AST",
            "BASO",
            "BILI",
            "UREAN",
            "CA",
            "CHOL",
            "CK",
            "CL",
            "COLOR",
            "CREAT",
            "EOS",
            "GGT",
            "GLUC",
            "HCT",
            "HGB",
            "K",
            "KETONES",
            "LYM",
            "MCH",
            "MCHC",
            "MCV",
            "MONO",
            "SODIUM",
            "PH",
            "PHOS",
            "PLAT",
            "PROT",
            "RBC",
            "SPGRAV",
            "URATE",
            "UROBIL",
            "WBC",
            "ALB",
            "ALP",
            "ALT",
            "AST",
            "BASO",
            "BILI",
            "UREAN",
            "CA",
            "CHOL",
            "CK",
            "CL",
            "CREAT",
            "EOS",
            "GGT",
            "GLUC",
            "HCT",
            "HGB",
            "K",
            "LYM",
            "MCH",
            "MCHC",
            "MCV",
            "MONO",
            "SODIUM",
            "PHOS",
            "PLAT",
            "PROT",
            "RBC",
            "URATE",
            "WBC",
            "ALB",
            "ALP",
            "ALT",
            "AST",
            "BASO",
            "BILI",
            "UREAN",
            "CA",
            "CHOL",
            "CK",
            "CL",
            "CREAT",
            "EOS",
            "GGT",
            "GLUC",
            "HCT",
            "HGB",
            "K",
            "LYM",
            "MCH",
            "MCHC",
            "MCV",
            "MONO",
            "SODIUM",
            "PHOS",
            "PLAT",
            "PROT",
            "RBC",
            "URATE",
            "WBC",
            "ALB",
            "ALP",
            "ALT",
            "AST",
            "BASO",
            "BILI",
            "UREAN",
            "CA",
            "CHOL",
            "CK",
            "CL",
            "COLOR",
            "CREAT",
            "EOS",
            "GGT",
            "GLUC",
            "HCT",
            "HGB",
            "K",
            "KETONES",
            "LYM",
            "MCH",
            "MCHC",
            "MCV",
            "MONO",
            "SODIUM",
            "PH",
            "PHOS",
            "PLAT",
            "PROT",
            "RBC",
            "SPGRAV",
            "URATE",
            "UROBIL",
            "WBC",
            "ALB",
            "ALP",
            "ALT",
            "AST",
            "BASO",
            "BILI",
            "UREAN",
            "CA",
            "CHOL",
            "CK",
            "CL",
            "CREAT",
            "EOS",
            "GGT",
            "GLUC",
            "HCT",
            "HGB",
            "K",
            "LYM",
            "MCH",
            "MCHC",
            "MCV",
            "MONO",
            "SODIUM",
            "PHOS",
            "PLAT",
            "PROT",
            "RBC",
            "URATE",
            "WBC",
            "ALB",
            "ALP",
            "ALT",
            "AST",
            "BASO",
            "BILI",
            "UREAN",
            "CA",
            "CHOL",
            "CK",
            "CL",
            "COLOR",
            "CREAT",
            "EOS",
            "GGT",
            "GLUC",
            "HCT",
            "HGB",
            "K",
            "KETONES",
            "LYM",
            "MCH",
            "MCHC",
            "MCV",
            "MONO",
            "SODIUM",
            "PH",
            "PHOS",
            "PLAT",
            "PROT",
            "RBC",
            "SPGRAV",
            "TSH",
            "URATE",
            "UROBIL",
            "VITB12",
            "WBC",
            "BASO",
            "EOS",
            "HCT",
            "HGB",
            "LYM",
            "MCH",
            "MCHC",
            "MCV",
            "MONO",
            "PLAT",
            "RBC",
            "TSH",
            "WBC",
            "ALB",
            "ALP",
            "ALT",
            "ANISO",
            "AST",
            "BASO",
            "BILI",
            "UREAN",
            "CA",
            "CHOL",
            "CK",
            "CL",
            "COLOR",
            "CREAT",
            "EOS",
            "GGT",
            "GLUC",
            "HCT",
            "HGB",
            "K",
            "KETONES",
            "LYM",
            "MCH",
            "MCHC",
            "MCV",
            "MONO",
            "SODIUM",
            "PH",
            "PHOS",
            "PLAT",
            "POIKILO",
            "PROT",
            "RBC",
            "SPGRAV",
            "URATE",
            "UROBIL",
            "WBC",
            "ALB",
            "ALP",
            "ALT",
            "AST",
            "BASO",
            "BILI",
            "UREAN",
            "CA",
            "CHOL",
            "CK",
            "CL",
            "CREAT",
            "EOS",
            "GGT",
            "GLUC",
            "HCT",
            "HGB",
            "K",
            "LYM",
            "MCH",
            "MCHC",
            "MCV",
            "MONO",
            "SODIUM",
            "PHOS",
            "PLAT",
            "PROT",
            "RBC",
            "URATE",
            "WBC",
            "ALB",
            "ALP",
            "ALT",
            "AST",
            "BASO",
            "BILI",
            "UREAN",
            "CA",
            "CHOL",
            "CK",
            "CL",
            "CREAT",
            "EOS",
            "GGT",
            "GLUC",
            "HCT",
            "HGB",
            "K",
            "LYM",
            "MCH",
            "MCHC",
            "MCV",
            "MONO",
            "SODIUM",
            "PHOS",
            "PLAT",
            "PROT",
            "RBC",
            "URATE",
            "WBC",
            "ALB",
            "ALP",
            "ALT",
            "AST",
            "BASO",
            "BILI",
            "UREAN",
            "CA",
            "CHOL",
            "CK",
            "CL",
            "CREAT",
            "EOS",
            "GGT",
            "GLUC",
            "HCT",
            "HGB",
            "K",
            "LYM",
            "MCH",
            "MCHC",
            "MCV",
            "MONO",
            "SODIUM",
            "PHOS",
            "PLAT",
            "PROT",
            "RBC",
            "URATE",
            "WBC",
            "ALB",
            "ALP",
            "ALT",
            "AST",
            "BASO",
            "BILI",
            "UREAN",
            "CA",
            "CHOL",
            "CK",
            "CL",
            "COLOR",
            "CREAT",
            "EOS",
            "GGT",
            "GLUC",
            "HCT",
            "HGB",
            "K",
            "KETONES",
            "LYM",
            "MCH",
            "MCHC",
            "MCV",
            "MONO",
            "SODIUM",
            "PH",
            "PHOS",
            "PLAT",
            "PROT",
            "RBC",
            "SPGRAV",
            "URATE",
            "UROBIL",
            "WBC",
            "ALB",
            "ALP",
            "ALT",
            "AST",
            "BASO",
            "BILI",
            "UREAN",
            "CA",
            "CHOL",
            "CK",
            "CL",
            "CREAT",
            "EOS",
            "GGT",
            "GLUC",
            "HCT",
            "HGB",
            "K",
            "LYM",
            "MCH",
            "MCHC",
            "MCV",
            "MONO",
            "SODIUM",
            "PHOS",
            "PLAT",
            "PROT",
            "RBC",
            "URATE",
            "WBC",
            "ALB",
            "ALP",
            "ALT",
            "AST",
            "BASO",
            "BILI",
            "UREAN",
            "CA",
            "CHOL",
            "CK",
            "COLOR",
            "CREAT",
            "EOS",
            "GGT",
            "GLUC",
            "HCT",
            "HGB",
            "KETONES",
            "LYM",
            "MCH",
            "MCHC",
            "MCV",
            "MONO",
            "PH",
            "PHOS",
            "PLAT",
            "PROT",
            "RBC",
            "SPGRAV",
            "URATE",
            "UROBIL",
            "WBC"
          ],
          "LBTEST": [
            "Albumin",
            "Alkaline Phosphatase",
            "Alanine Aminotransferase",
            "Aspartate Aminotransferase",
            "Basophils",
            "Bilirubin",
            "Urea Nitrogen",
            "Calcium",
            "Cholesterol",
            "Creatine Kinase",
            "Chloride",
            "Color",
            "Creatinine",
            "Eosinophils",
            "Gamma Glutamyl Transferase",
            "Glucose",
            "Hematocrit",
            "Hemoglobin",
            "Potassium",
            "Ketones",
            "Lymphocytes",
            "Ery. Mean Corpuscular Hemoglobin",
            "Ery. Mean Corpuscular HGB Concentration",
            "Ery. Mean Corpuscular Volume",
            "Monocytes",
            "Sodium",
            "pH",
            "Phosphate",
            "Platelets",
            "Protein",
            "Erythrocytes",
            "Specific Gravity",
            "Thyrotropin",
            "Urate",
            "Urobilinogen",
            "Vitamin B12",
            "Leukocytes",
            "Albumin",
            "Alkaline Phosphatase",
            "Alanine Aminotransferase",
            "Aspartate Aminotransferase",
            "Basophils",
            "Bilirubin",
            "Urea Nitrogen",
            "Calcium",
            "Cholesterol",
            "Creatine Kinase",
            "Chloride",
            "Color",
            "Creatinine",
            "Eosinophils",
            "Gamma Glutamyl Transferase",
            "Glucose",
            "Hematocrit",
            "Hemoglobin",
            "Potassium",
            "Ketones",
            "Lymphocytes",
            "Ery. Mean Corpuscular Hemoglobin",
            "Ery. Mean Corpuscular HGB Concentration",
            "Ery. Mean Corpuscular Volume",
            "Monocytes",
            "Sodium",
            "pH",
            "Phosphate",
            "Platelets",
            "Protein",
            "Erythrocytes",
            "Specific Gravity",
            "Urate",
            "Urobilinogen",
            "Leukocytes",
            "Albumin",
            "Alkaline Phosphatase",
            "Alanine Aminotransferase",
            "Aspartate Aminotransferase",
            "Basophils",
            "Bilirubin",
            "Urea Nitrogen",
            "Calcium",
            "Cholesterol",
            "Creatine Kinase",
            "Chloride",
            "Creatinine",
            "Eosinophils",
            "Gamma Glutamyl Transferase",
            "Glucose",
            "Hematocrit",
            "Hemoglobin",
            "Potassium",
            "Lymphocytes",
            "Ery. Mean Corpuscular Hemoglobin",
            "Ery. Mean Corpuscular HGB Concentration",
            "Ery. Mean Corpuscular Volume",
            "Monocytes",
            "Sodium",
            "Phosphate",
            "Platelets",
            "Protein",
            "Erythrocytes",
            "Urate",
            "Leukocytes",
            "Albumin",
            "Alkaline Phosphatase",
            "Alanine Aminotransferase",
            "Aspartate Aminotransferase",
            "Basophils",
            "Bilirubin",
            "Urea Nitrogen",
            "Calcium",
            "Cholesterol",
            "Creatine Kinase",
            "Chloride",
            "Creatinine",
            "Eosinophils",
            "Gamma Glutamyl Transferase",
            "Glucose",
            "Hematocrit",
            "Hemoglobin",
            "Potassium",
            "Lymphocytes",
            "Ery. Mean Corpuscular Hemoglobin",
            "Ery. Mean Corpuscular HGB Concentration",
            "Ery. Mean Corpuscular Volume",
            "Monocytes",
            "Sodium",
            "Phosphate",
            "Platelets",
            "Protein",
            "Erythrocytes",
            "Urate",
            "Leukocytes",
            "Albumin",
            "Alkaline Phosphatase",
            "Alanine Aminotransferase",
            "Aspartate Aminotransferase",
            "Basophils",
            "Bilirubin",
            "Urea Nitrogen",
            "Calcium",
            "Cholesterol",
            "Creatine Kinase",
            "Chloride",
            "Creatinine",
            "Eosinophils",
            "Gamma Glutamyl Transferase",
            "Glucose",
            "Hematocrit",
            "Hemoglobin",
            "Potassium",
            "Lymphocytes",
            "Ery. Mean Corpuscular Hemoglobin",
            "Ery. Mean Corpuscular HGB Concentration",
            "Ery. Mean Corpuscular Volume",
            "Monocytes",
            "Sodium",
            "Phosphate",
            "Platelets",
            "Protein",
            "Erythrocytes",
            "Urate",
            "Leukocytes",
            "Albumin",
            "Alkaline Phosphatase",
            "Alanine Aminotransferase",
            "Aspartate Aminotransferase",
            "Basophils",
            "Bilirubin",
            "Urea Nitrogen",
            "Calcium",
            "Cholesterol",
            "Creatine Kinase",
            "Chloride",
            "Color",
            "Creatinine",
            "Eosinophils",
            "Gamma Glutamyl Transferase",
            "Glucose",
            "Hematocrit",
            "Hemoglobin",
            "Potassium",
            "Ketones",
            "Lymphocytes",
            "Ery. Mean Corpuscular Hemoglobin",
            "Ery. Mean Corpuscular HGB Concentration",
            "Ery. Mean Corpuscular Volume",
            "Monocytes",
            "Sodium",
            "pH",
            "Phosphate",
            "Platelets",
            "Protein",
            "Erythrocytes",
            "Specific Gravity",
            "Urate",
            "Urobilinogen",
            "Leukocytes",
            "Albumin",
            "Alkaline Phosphatase",
            "Alanine Aminotransferase",
            "Aspartate Aminotransferase",
            "Basophils",
            "Bilirubin",
            "Urea Nitrogen",
            "Calcium",
            "Cholesterol",
            "Creatine Kinase",
            "Chloride",
            "Creatinine",
            "Eosinophils",
            "Gamma Glutamyl Transferase",
            "Glucose",
            "Hematocrit",
            "Hemoglobin",
            "Potassium",
            "Lymphocytes",
            "Ery. Mean Corpuscular Hemoglobin",
            "Ery. Mean Corpuscular HGB Concentration",
            "Ery. Mean Corpuscular Volume",
            "Monocytes",
            "Sodium",
            "Phosphate",
            "Platelets",
            "Protein",
            "Erythrocytes",
            "Urate",
            "Leukocytes",
            "Albumin",
            "Alkaline Phosphatase",
            "Alanine Aminotransferase",
            "Aspartate Aminotransferase",
            "Basophils",
            "Bilirubin",
            "Urea Nitrogen",
            "Calcium",
            "Cholesterol",
            "Creatine Kinase",
            "Chloride",
            "Creatinine",
            "Eosinophils",
            "Gamma Glutamyl Transferase",
            "Glucose",
            "Hematocrit",
            "Hemoglobin",
            "Potassium",
            "Lymphocytes",
            "Ery. Mean Corpuscular Hemoglobin",
            "Ery. Mean Corpuscular HGB Concentration",
            "Ery. Mean Corpuscular Volume",
            "Monocytes",
            "Sodium",
            "Phosphate",
            "Platelets",
            "Protein",
            "Erythrocytes",
            "Urate",
            "Leukocytes",
            "Albumin",
            "Alkaline Phosphatase",
            "Alanine Aminotransferase",
            "Aspartate Aminotransferase",
            "Basophils",
            "Bilirubin",
            "Urea Nitrogen",
            "Calcium",
            "Cholesterol",
            "Creatine Kinase",
            "Chloride",
            "Color",
            "Creatinine",
            "Eosinophils",
            "Gamma Glutamyl Transferase",
            "Glucose",
            "Hematocrit",
            "Hemoglobin",
            "Potassium",
            "Ketones",
            "Lymphocytes",
            "Ery. Mean Corpuscular Hemoglobin",
            "Ery. Mean Corpuscular HGB Concentration",
            "Ery. Mean Corpuscular Volume",
            "Monocytes",
            "Sodium",
            "pH",
            "Phosphate",
            "Platelets",
            "Protein",
            "Erythrocytes",
            "Specific Gravity",
            "Urate",
            "Urobilinogen",
            "Leukocytes",
            "Albumin",
            "Alkaline Phosphatase",
            "Alanine Aminotransferase",
            "Aspartate Aminotransferase",
            "Basophils",
            "Bilirubin",
            "Urea Nitrogen",
            "Calcium",
            "Cholesterol",
            "Creatine Kinase",
            "Chloride",
            "Color",
            "Creatinine",
            "Eosinophils",
            "Gamma Glutamyl Transferase",
            "Glucose",
            "Hematocrit",
            "Hemoglobin",
            "Potassium",
            "Ketones",
            "Lymphocytes",
            "Ery. Mean Corpuscular Hemoglobin",
            "Ery. Mean Corpuscular HGB Concentration",
            "Ery. Mean Corpuscular Volume",
            "Monocytes",
            "Sodium",
            "pH",
            "Phosphate",
            "Platelets",
            "Protein",
            "Erythrocytes",
            "Specific Gravity",
            "Thyrotropin",
            "Urate",
            "Urobilinogen",
            "Vitamin B12",
            "Leukocytes",
            "Albumin",
            "Alkaline Phosphatase",
            "Alanine Aminotransferase",
            "Aspartate Aminotransferase",
            "Basophils",
            "Bilirubin",
            "Urea Nitrogen",
            "Calcium",
            "Cholesterol",
            "Creatine Kinase",
            "Chloride",
            "Color",
            "Creatinine",
            "Eosinophils",
            "Gamma Glutamyl Transferase",
            "Glucose",
            "Hematocrit",
            "Hemoglobin",
            "Potassium",
            "Ketones",
            "Lymphocytes",
            "Ery. Mean Corpuscular Hemoglobin",
            "Ery. Mean Corpuscular HGB Concentration",
            "Ery. Mean Corpuscular Volume",
            "Monocytes",
            "Sodium",
            "pH",
            "Phosphate",
            "Platelets",
            "Protein",
            "Erythrocytes",
            "Specific Gravity",
            "Urate",
            "Urobilinogen",
            "Leukocytes",
            "Albumin",
            "Alkaline Phosphatase",
            "Alanine Aminotransferase",
            "Aspartate Aminotransferase",
            "Basophils",
            "Bilirubin",
            "Urea Nitrogen",
            "Calcium",
            "Cholesterol",
            "Creatine Kinase",
            "Chloride",
            "Creatinine",
            "Eosinophils",
            "Gamma Glutamyl Transferase",
            "Glucose",
            "Hematocrit",
            "Hemoglobin",
            "Potassium",
            "Lymphocytes",
            "Ery. Mean Corpuscular Hemoglobin",
            "Ery. Mean Corpuscular HGB Concentration",
            "Ery. Mean Corpuscular Volume",
            "Monocytes",
            "Sodium",
            "Phosphate",
            "Platelets",
            "Protein",
            "Erythrocytes",
            "Urate",
            "Leukocytes",
            "Albumin",
            "Alkaline Phosphatase",
            "Alanine Aminotransferase",
            "Aspartate Aminotransferase",
            "Basophils",
            "Bilirubin",
            "Urea Nitrogen",
            "Calcium",
            "Cholesterol",
            "Creatine Kinase",
            "Chloride",
            "Creatinine",
            "Eosinophils",
            "Gamma Glutamyl Transferase",
            "Glucose",
            "Hematocrit",
            "Hemoglobin",
            "Potassium",
            "Lymphocytes",
            "Ery. Mean Corpuscular Hemoglobin",
            "Ery. Mean Corpuscular HGB Concentration",
            "Ery. Mean Corpuscular Volume",
            "Monocytes",
            "Sodium",
            "Phosphate",
            "Platelets",
            "Protein",
            "Erythrocytes",
            "Urate",
            "Leukocytes",
            "Albumin",
            "Alkaline Phosphatase",
            "Alanine Aminotransferase",
            "Aspartate Aminotransferase",
            "Basophils",
            "Bilirubin",
            "Urea Nitrogen",
            "Calcium",
            "Cholesterol",
            "Creatine Kinase",
            "Chloride",
            "Creatinine",
            "Eosinophils",
            "Gamma Glutamyl Transferase",
            "Glucose",
            "Hematocrit",
            "Hemoglobin",
            "Potassium",
            "Lymphocytes",
            "Ery. Mean Corpuscular Hemoglobin",
            "Ery. Mean Corpuscular HGB Concentration",
            "Ery. Mean Corpuscular Volume",
            "Monocytes",
            "Sodium",
            "Phosphate",
            "Platelets",
            "Protein",
            "Erythrocytes",
            "Urate",
            "Leukocytes",
            "Albumin",
            "Alkaline Phosphatase",
            "Alanine Aminotransferase",
            "Aspartate Aminotransferase",
            "Basophils",
            "Bilirubin",
            "Urea Nitrogen",
            "Calcium",
            "Cholesterol",
            "Creatine Kinase",
            "Chloride",
            "Color",
            "Creatinine",
            "Eosinophils",
            "Gamma Glutamyl Transferase",
            "Glucose",
            "Hematocrit",
            "Hemoglobin",
            "Potassium",
            "Ketones",
            "Lymphocytes",
            "Ery. Mean Corpuscular Hemoglobin",
            "Ery. Mean Corpuscular HGB Concentration",
            "Ery. Mean Corpuscular Volume",
            "Monocytes",
            "Sodium",
            "pH",
            "Phosphate",
            "Platelets",
            "Protein",
            "Erythrocytes",
            "Specific Gravity",
            "Urate",
            "Urobilinogen",
            "Leukocytes",
            "Albumin",
            "Alkaline Phosphatase",
            "Alanine Aminotransferase",
            "Aspartate Aminotransferase",
            "Basophils",
            "Bilirubin",
            "Urea Nitrogen",
            "Calcium",
            "Cholesterol",
            "Creatine Kinase",
            "Chloride",
            "Creatinine",
            "Eosinophils",
            "Gamma Glutamyl Transferase",
            "Glucose",
            "Hematocrit",
            "Hemoglobin",
            "Potassium",
            "Lymphocytes",
            "Ery. Mean Corpuscular Hemoglobin",
            "Ery. Mean Corpuscular HGB Concentration",
            "Ery. Mean Corpuscular Volume",
            "Monocytes",
            "Sodium",
            "Phosphate",
            "Platelets",
            "Protein",
            "Erythrocytes",
            "Urate",
            "Leukocytes",
            "Albumin",
            "Alkaline Phosphatase",
            "Alanine Aminotransferase",
            "Aspartate Aminotransferase",
            "Basophils",
            "Bilirubin",
            "Urea Nitrogen",
            "Calcium",
            "Cholesterol",
            "Creatine Kinase",
            "Chloride",
            "Creatinine",
            "Eosinophils",
            "Gamma Glutamyl Transferase",
            "Glucose",
            "Hematocrit",
            "Hemoglobin",
            "Potassium",
            "Lymphocytes",
            "Ery. Mean Corpuscular Hemoglobin",
            "Ery. Mean Corpuscular HGB Concentration",
            "Ery. Mean Corpuscular Volume",
            "Monocytes",
            "Sodium",
            "Phosphate",
            "Platelets",
            "Protein",
            "Erythrocytes",
            "Urate",
            "Leukocytes",
            "Albumin",
            "Alkaline Phosphatase",
            "Alanine Aminotransferase",
            "Aspartate Aminotransferase",
            "Basophils",
            "Bilirubin",
            "Urea Nitrogen",
            "Calcium",
            "Cholesterol",
            "Creatine Kinase",
            "Chloride",
            "Color",
            "Creatinine",
            "Eosinophils",
            "Gamma Glutamyl Transferase",
            "Glucose",
            "Hematocrit",
            "Hemoglobin",
            "Potassium",
            "Ketones",
            "Lymphocytes",
            "Ery. Mean Corpuscular Hemoglobin",
            "Ery. Mean Corpuscular HGB Concentration",
            "Ery. Mean Corpuscular Volume",
            "Monocytes",
            "Sodium",
            "pH",
            "Phosphate",
            "Platelets",
            "Protein",
            "Erythrocytes",
            "Specific Gravity",
            "Urate",
            "Urobilinogen",
            "Leukocytes",
            "Albumin",
            "Alkaline Phosphatase",
            "Alanine Aminotransferase",
            "Aspartate Aminotransferase",
            "Basophils",
            "Bilirubin",
            "Urea Nitrogen",
            "Calcium",
            "Cholesterol",
            "Creatine Kinase",
            "Chloride",
            "Creatinine",
            "Eosinophils",
            "Gamma Glutamyl Transferase",
            "Glucose",
            "Hematocrit",
            "Hemoglobin",
            "Potassium",
            "Lymphocytes",
            "Ery. Mean Corpuscular Hemoglobin",
            "Ery. Mean Corpuscular HGB Concentration",
            "Ery. Mean Corpuscular Volume",
            "Monocytes",
            "Sodium",
            "Phosphate",
            "Platelets",
            "Protein",
            "Erythrocytes",
            "Urate",
            "Leukocytes",
            "Albumin",
            "Alkaline Phosphatase",
            "Alanine Aminotransferase",
            "Aspartate Aminotransferase",
            "Basophils",
            "Bilirubin",
            "Urea Nitrogen",
            "Calcium",
            "Cholesterol",
            "Creatine Kinase",
            "Chloride",
            "Color",
            "Creatinine",
            "Eosinophils",
            "Gamma Glutamyl Transferase",
            "Glucose",
            "Hematocrit",
            "Hemoglobin",
            "Potassium",
            "Ketones",
            "Lymphocytes",
            "Ery. Mean Corpuscular Hemoglobin",
            "Ery. Mean Corpuscular HGB Concentration",
            "Ery. Mean Corpuscular Volume",
            "Monocytes",
            "Sodium",
            "pH",
            "Phosphate",
            "Platelets",
            "Protein",
            "Erythrocytes",
            "Specific Gravity",
            "Thyrotropin",
            "Urate",
            "Urobilinogen",
            "Vitamin B12",
            "Leukocytes",
            "Basophils",
            "Eosinophils",
            "Hematocrit",
            "Hemoglobin",
            "Lymphocytes",
            "Ery. Mean Corpuscular Hemoglobin",
            "Ery. Mean Corpuscular HGB Concentration",
            "Ery. Mean Corpuscular Volume",
            "Monocytes",
            "Platelets",
            "Erythrocytes",
            "Thyrotropin",
            "Leukocytes",
            "Albumin",
            "Alkaline Phosphatase",
            "Alanine Aminotransferase",
            "Anisocytes",
            "Aspartate Aminotransferase",
            "Basophils",
            "Bilirubin",
            "Urea Nitrogen",
            "Calcium",
            "Cholesterol",
            "Creatine Kinase",
            "Chloride",
            "Color",
            "Creatinine",
            "Eosinophils",
            "Gamma Glutamyl Transferase",
            "Glucose",
            "Hematocrit",
            "Hemoglobin",
            "Potassium",
            "Ketones",
            "Lymphocytes",
            "Ery. Mean Corpuscular Hemoglobin",
            "Ery. Mean Corpuscular HGB Concentration",
            "Ery. Mean Corpuscular Volume",
            "Monocytes",
            "Sodium",
            "pH",
            "Phosphate",
            "Platelets",
            "Poikilocytes",
            "Protein",
            "Erythrocytes",
            "Specific Gravity",
            "Urate",
            "Urobilinogen",
            "Leukocytes",
            "Albumin",
            "Alkaline Phosphatase",
            "Alanine Aminotransferase",
            "Aspartate Aminotransferase",
            "Basophils",
            "Bilirubin",
            "Urea Nitrogen",
            "Calcium",
            "Cholesterol",
            "Creatine Kinase",
            "Chloride",
            "Creatinine",
            "Eosinophils",
            "Gamma Glutamyl Transferase",
            "Glucose",
            "Hematocrit",
            "Hemoglobin",
            "Potassium",
            "Lymphocytes",
            "Ery. Mean Corpuscular Hemoglobin",
            "Ery. Mean Corpuscular HGB Concentration",
            "Ery. Mean Corpuscular Volume",
            "Monocytes",
            "Sodium",
            "Phosphate",
            "Platelets",
            "Protein",
            "Erythrocytes",
            "Urate",
            "Leukocytes",
            "Albumin",
            "Alkaline Phosphatase",
            "Alanine Aminotransferase",
            "Aspartate Aminotransferase",
            "Basophils",
            "Bilirubin",
            "Urea Nitrogen",
            "Calcium",
            "Cholesterol",
            "Creatine Kinase",
            "Chloride",
            "Creatinine",
            "Eosinophils",
            "Gamma Glutamyl Transferase",
            "Glucose",
            "Hematocrit",
            "Hemoglobin",
            "Potassium",
            "Lymphocytes",
            "Ery. Mean Corpuscular Hemoglobin",
            "Ery. Mean Corpuscular HGB Concentration",
            "Ery. Mean Corpuscular Volume",
            "Monocytes",
            "Sodium",
            "Phosphate",
            "Platelets",
            "Protein",
            "Erythrocytes",
            "Urate",
            "Leukocytes",
            "Albumin",
            "Alkaline Phosphatase",
            "Alanine Aminotransferase",
            "Aspartate Aminotransferase",
            "Basophils",
            "Bilirubin",
            "Urea Nitrogen",
            "Calcium",
            "Cholesterol",
            "Creatine Kinase",
            "Chloride",
            "Creatinine",
            "Eosinophils",
            "Gamma Glutamyl Transferase",
            "Glucose",
            "Hematocrit",
            "Hemoglobin",
            "Potassium",
            "Lymphocytes",
            "Ery. Mean Corpuscular Hemoglobin",
            "Ery. Mean Corpuscular HGB Concentration",
            "Ery. Mean Corpuscular Volume",
            "Monocytes",
            "Sodium",
            "Phosphate",
            "Platelets",
            "Protein",
            "Erythrocytes",
            "Urate",
            "Leukocytes",
            "Albumin",
            "Alkaline Phosphatase",
            "Alanine Aminotransferase",
            "Aspartate Aminotransferase",
            "Basophils",
            "Bilirubin",
            "Urea Nitrogen",
            "Calcium",
            "Cholesterol",
            "Creatine Kinase",
            "Chloride",
            "Color",
            "Creatinine",
            "Eosinophils",
            "Gamma Glutamyl Transferase",
            "Glucose",
            "Hematocrit",
            "Hemoglobin",
            "Potassium",
            "Ketones",
            "Lymphocytes",
            "Ery. Mean Corpuscular Hemoglobin",
            "Ery. Mean Corpuscular HGB Concentration",
            "Ery. Mean Corpuscular Volume",
            "Monocytes",
            "Sodium",
            "pH",
            "Phosphate",
            "Platelets",
            "Protein",
            "Erythrocytes",
            "Specific Gravity",
            "Urate",
            "Urobilinogen",
            "Leukocytes",
            "Albumin",
            "Alkaline Phosphatase",
            "Alanine Aminotransferase",
            "Aspartate Aminotransferase",
            "Basophils",
            "Bilirubin",
            "Urea Nitrogen",
            "Calcium",
            "Cholesterol",
            "Creatine Kinase",
            "Chloride",
            "Creatinine",
            "Eosinophils",
            "Gamma Glutamyl Transferase",
            "Glucose",
            "Hematocrit",
            "Hemoglobin",
            "Potassium",
            "Lymphocytes",
            "Ery. Mean Corpuscular Hemoglobin",
            "Ery. Mean Corpuscular HGB Concentration",
            "Ery. Mean Corpuscular Volume",
            "Monocytes",
            "Sodium",
            "Phosphate",
            "Platelets",
            "Protein",
            "Erythrocytes",
            "Urate",
            "Leukocytes",
            "Albumin",
            "Alkaline Phosphatase",
            "Alanine Aminotransferase",
            "Aspartate Aminotransferase",
            "Basophils",
            "Bilirubin",
            "Urea Nitrogen",
            "Calcium",
            "Cholesterol",
            "Creatine Kinase",
            "Color",
            "Creatinine",
            "Eosinophils",
            "Gamma Glutamyl Transferase",
            "Glucose",
            "Hematocrit",
            "Hemoglobin",
            "Ketones",
            "Lymphocytes",
            "Ery. Mean Corpuscular Hemoglobin",
            "Ery. Mean Corpuscular HGB Concentration",
            "Ery. Mean Corpuscular Volume",
            "Monocytes",
            "pH",
            "Phosphate",
            "Platelets",
            "Protein",
            "Erythrocytes",
            "Specific Gravity",
            "Urate",
            "Urobilinogen",
            "Leukocytes"
          ],
          "LBCAT": [
            "CHEMISTRY",
            "CHEMISTRY",
            "CHEMISTRY",
            "CHEMISTRY",
            "HEMATOLOGY",
            "CHEMISTRY",
            "CHEMISTRY",
            "CHEMISTRY",
            "CHEMISTRY",
            "CHEMISTRY",
            "CHEMISTRY",
            "URINALYSIS",
            "CHEMISTRY",
            "HEMATOLOGY",
            "CHEMISTRY",
            "CHEMISTRY",
            "HEMATOLOGY",
            "HEMATOLOGY",
            "CHEMISTRY",
            "URINALYSIS",
            "HEMATOLOGY",
            "HEMATOLOGY",
            "HEMATOLOGY",
            "HEMATOLOGY",
            "HEMATOLOGY",
            "CHEMISTRY",
            "URINALYSIS",
            "CHEMISTRY",
            "HEMATOLOGY",
            "CHEMISTRY",
            "HEMATOLOGY",
            "URINALYSIS",
            "OTHER",
            "CHEMISTRY",
            "URINALYSIS",
            "OTHER",
            "HEMATOLOGY",
            "CHEMISTRY",
            "CHEMISTRY",
            "CHEMISTRY",
            "CHEMISTRY",
            "HEMATOLOGY",
            "CHEMISTRY",
            "CHEMISTRY",
            "CHEMISTRY",
            "CHEMISTRY",
            "CHEMISTRY",
            "CHEMISTRY",
            "URINALYSIS",
            "CHEMISTRY",
            "HEMATOLOGY",
            "CHEMISTRY",
            "CHEMISTRY",
            "HEMATOLOGY",
            "HEMATOLOGY",
            "CHEMISTRY",
            "URINALYSIS",
            "HEMATOLOGY",
            "HEMATOLOGY",
            "HEMATOLOGY",
            "HEMATOLOGY",
            "HEMATOLOGY",
            "CHEMISTRY",
            "URINALYSIS",
            "CHEMISTRY",
            "HEMATOLOGY",
            "CHEMISTRY",
            "HEMATOLOGY",
            "URINALYSIS",
            "CHEMISTRY",
            "URINALYSIS",
            "HEMATOLOGY",
            "CHEMISTRY",
            "CHEMISTRY",
            "CHEMISTRY",
            "CHEMISTRY",
            "HEMATOLOGY",
            "CHEMISTRY",
            "CHEMISTRY",
            "CHEMISTRY",
            "CHEMISTRY",
            "CHEMISTRY",
            "CHEMISTRY",
            "CHEMISTRY",
            "HEMATOLOGY",
            "CHEMISTRY",
            "CHEMISTRY",
            "HEMATOLOGY",
            "HEMATOLOGY",
            "CHEMISTRY",
            "HEMATOLOGY",
            "HEMATOLOGY",
            "HEMATOLOGY",
            "HEMATOLOGY",
            "HEMATOLOGY",
            "CHEMISTRY",
            "CHEMISTRY",
            "HEMATOLOGY",
            "CHEMISTRY",
            "HEMATOLOGY",
            "CHEMISTRY",
            "HEMATOLOGY",
            "CHEMISTRY",
            "CHEMISTRY",
            "CHEMISTRY",
            "CHEMISTRY",
            "HEMATOLOGY",
            "CHEMISTRY",
            "CHEMISTRY",
            "CHEMISTRY",
            "CHEMISTRY",
            "CHEMISTRY",
            "CHEMISTRY",
            "CHEMISTRY",
            "HEMATOLOGY",
            "CHEMISTRY",
            "CHEMISTRY",
            "HEMATOLOGY",
            "HEMATOLOGY",
            "CHEMISTRY",
            "HEMATOLOGY",
            "HEMATOLOGY",
            "HEMATOLOGY",
            "HEMATOLOGY",
            "HEMATOLOGY",
            "CHEMISTRY",
            "CHEMISTRY",
            "HEMATOLOGY",
            "CHEMISTRY",
            "HEMATOLOGY",
            "CHEMISTRY",
            "HEMATOLOGY",
            "CHEMISTRY",
            "CHEMISTRY",
            "CHEMISTRY",
            "CHEMISTRY",
            "HEMATOLOGY",
            "CHEMISTRY",
            "CHEMISTRY",
            "CHEMISTRY",
            "CHEMISTRY",
            "CHEMISTRY",
            "CHEMISTRY",
            "CHEMISTRY",
            "HEMATOLOGY",
            "CHEMISTRY",
            "CHEMISTRY",
            "HEMATOLOGY",
            "HEMATOLOGY",
            "CHEMISTRY",
            "HEMATOLOGY",
            "HEMATOLOGY",
            "HEMATOLOGY",
            "HEMATOLOGY",
            "HEMATOLOGY",
            "CHEMISTRY",
            "CHEMISTRY",
            "HEMATOLOGY",
            "CHEMISTRY",
            "HEMATOLOGY",
            "CHEMISTRY",
            "HEMATOLOGY",
            "CHEMISTRY",
            "CHEMISTRY",
            "CHEMISTRY",
            "CHEMISTRY",
            "HEMATOLOGY",
            "CHEMISTRY",
            "CHEMISTRY",
            "CHEMISTRY",
            "CHEMISTRY",
            "CHEMISTRY",
            "CHEMISTRY",
            "URINALYSIS",
            "CHEMISTRY",
            "HEMATOLOGY",
            "CHEMISTRY",
            "CHEMISTRY",
            "HEMATOLOGY",
            "HEMATOLOGY",
            "CHEMISTRY",
            "URINALYSIS",
            "HEMATOLOGY",
            "HEMATOLOGY",
            "HEMATOLOGY",
            "HEMATOLOGY",
            "HEMATOLOGY",
            "CHEMISTRY",
            "URINALYSIS",
            "CHEMISTRY",
            "HEMATOLOGY",
            "CHEMISTRY",
            "HEMATOLOGY",
            "URINALYSIS",
            "CHEMISTRY",
            "URINALYSIS",
            "HEMATOLOGY",
            "CHEMISTRY",
            "CHEMISTRY",
            "CHEMISTRY",
            "CHEMISTRY",
            "HEMATOLOGY",
            "CHEMISTRY",
            "CHEMISTRY",
            "CHEMISTRY",
            "CHEMISTRY",
            "CHEMISTRY",
            "CHEMISTRY",
            "CHEMISTRY",
            "HEMATOLOGY",
            "CHEMISTRY",
            "CHEMISTRY",
            "HEMATOLOGY",
            "HEMATOLOGY",
            "CHEMISTRY",
            "HEMATOLOGY",
            "HEMATOLOGY",
            "HEMATOLOGY",
            "HEMATOLOGY",
            "HEMATOLOGY",
            "CHEMISTRY",
            "CHEMISTRY",
            "HEMATOLOGY",
            "CHEMISTRY",
            "HEMATOLOGY",
            "CHEMISTRY",
            "HEMATOLOGY",
            "CHEMISTRY",
            "CHEMISTRY",
            "CHEMISTRY",
            "CHEMISTRY",
            "HEMATOLOGY",
            "CHEMISTRY",
            "CHEMISTRY",
            "CHEMISTRY",
            "CHEMISTRY",
            "CHEMISTRY",
            "CHEMISTRY",
            "CHEMISTRY",
            "HEMATOLOGY",
            "CHEMISTRY",
            "CHEMISTRY",
            "HEMATOLOGY",
            "HEMATOLOGY",
            "CHEMISTRY",
            "HEMATOLOGY",
            "HEMATOLOGY",
            "HEMATOLOGY",
            "HEMATOLOGY",
            "HEMATOLOGY",
            "CHEMISTRY",
            "CHEMISTRY",
            "HEMATOLOGY",
            "CHEMISTRY",
            "HEMATOLOGY",
            "CHEMISTRY",
            "HEMATOLOGY",
            "CHEMISTRY",
            "CHEMISTRY",
            "CHEMISTRY",
            "CHEMISTRY",
            "HEMATOLOGY",
            "CHEMISTRY",
            "CHEMISTRY",
            "CHEMISTRY",
            "CHEMISTRY",
            "CHEMISTRY",
            "CHEMISTRY",
            "URINALYSIS",
            "CHEMISTRY",
            "HEMATOLOGY",
            "CHEMISTRY",
            "CHEMISTRY",
            "HEMATOLOGY",
            "HEMATOLOGY",
            "CHEMISTRY",
            "URINALYSIS",
            "HEMATOLOGY",
            "HEMATOLOGY",
            "HEMATOLOGY",
            "HEMATOLOGY",
            "HEMATOLOGY",
            "CHEMISTRY",
            "URINALYSIS",
            "CHEMISTRY",
            "HEMATOLOGY",
            "CHEMISTRY",
            "HEMATOLOGY",
            "URINALYSIS",
            "CHEMISTRY",
            "URINALYSIS",
            "HEMATOLOGY",
            "CHEMISTRY",
            "CHEMISTRY",
            "CHEMISTRY",
            "CHEMISTRY",
            "HEMATOLOGY",
            "CHEMISTRY",
            "CHEMISTRY",
            "CHEMISTRY",
            "CHEMISTRY",
            "CHEMISTRY",
            "CHEMISTRY",
            "URINALYSIS",
            "CHEMISTRY",
            "HEMATOLOGY",
            "CHEMISTRY",
            "CHEMISTRY",
            "HEMATOLOGY",
            "HEMATOLOGY",
            "CHEMISTRY",
            "URINALYSIS",
            "HEMATOLOGY",
            "HEMATOLOGY",
            "HEMATOLOGY",
            "HEMATOLOGY",
            "HEMATOLOGY",
            "CHEMISTRY",
            "URINALYSIS",
            "CHEMISTRY",
            "HEMATOLOGY",
            "CHEMISTRY",
            "HEMATOLOGY",
            "URINALYSIS",
            "OTHER",
            "CHEMISTRY",
            "URINALYSIS",
            "OTHER",
            "HEMATOLOGY",
            "CHEMISTRY",
            "CHEMISTRY",
            "CHEMISTRY",
            "CHEMISTRY",
            "HEMATOLOGY",
            "CHEMISTRY",
            "CHEMISTRY",
            "CHEMISTRY",
            "CHEMISTRY",
            "CHEMISTRY",
            "CHEMISTRY",
            "URINALYSIS",
            "CHEMISTRY",
            "HEMATOLOGY",
            "CHEMISTRY",
            "CHEMISTRY",
            "HEMATOLOGY",
            "HEMATOLOGY",
            "CHEMISTRY",
            "URINALYSIS",
            "HEMATOLOGY",
            "HEMATOLOGY",
            "HEMATOLOGY",
            "HEMATOLOGY",
            "HEMATOLOGY",
            "CHEMISTRY",
            "URINALYSIS",
            "CHEMISTRY",
            "HEMATOLOGY",
            "CHEMISTRY",
            "HEMATOLOGY",
            "URINALYSIS",
            "CHEMISTRY",
            "URINALYSIS",
            "HEMATOLOGY",
            "CHEMISTRY",
            "CHEMISTRY",
            "CHEMISTRY",
            "CHEMISTRY",
            "HEMATOLOGY",
            "CHEMISTRY",
            "CHEMISTRY",
            "CHEMISTRY",
            "CHEMISTRY",
            "CHEMISTRY",
            "CHEMISTRY",
            "CHEMISTRY",
            "HEMATOLOGY",
            "CHEMISTRY",
            "CHEMISTRY",
            "HEMATOLOGY",
            "HEMATOLOGY",
            "CHEMISTRY",
            "HEMATOLOGY",
            "HEMATOLOGY",
            "HEMATOLOGY",
            "HEMATOLOGY",
            "HEMATOLOGY",
            "CHEMISTRY",
            "CHEMISTRY",
            "HEMATOLOGY",
            "CHEMISTRY",
            "HEMATOLOGY",
            "CHEMISTRY",
            "HEMATOLOGY",
            "CHEMISTRY",
            "CHEMISTRY",
            "CHEMISTRY",
            "CHEMISTRY",
            "HEMATOLOGY",
            "CHEMISTRY",
            "CHEMISTRY",
            "CHEMISTRY",
            "CHEMISTRY",
            "CHEMISTRY",
            "CHEMISTRY",
            "CHEMISTRY",
            "HEMATOLOGY",
            "CHEMISTRY",
            "CHEMISTRY",
            "HEMATOLOGY",
            "HEMATOLOGY",
            "CHEMISTRY",
            "HEMATOLOGY",
            "HEMATOLOGY",
            "HEMATOLOGY",
            "HEMATOLOGY",
            "HEMATOLOGY",
            "CHEMISTRY",
            "CHEMISTRY",
            "HEMATOLOGY",
            "CHEMISTRY",
            "HEMATOLOGY",
            "CHEMISTRY",
            "HEMATOLOGY",
            "CHEMISTRY",
            "CHEMISTRY",
            "CHEMISTRY",
            "CHEMISTRY",
            "HEMATOLOGY",
            "CHEMISTRY",
            "CHEMISTRY",
            "CHEMISTRY",
            "CHEMISTRY",
            "CHEMISTRY",
            "CHEMISTRY",
            "CHEMISTRY",
            "HEMATOLOGY",
            "CHEMISTRY",
            "CHEMISTRY",
            "HEMATOLOGY",
            "HEMATOLOGY",
            "CHEMISTRY",
            "HEMATOLOGY",
            "HEMATOLOGY",
            "HEMATOLOGY",
            "HEMATOLOGY",
            "HEMATOLOGY",
            "CHEMISTRY",
            "CHEMISTRY",
            "HEMATOLOGY",
            "CHEMISTRY",
            "HEMATOLOGY",
            "CHEMISTRY",
            "HEMATOLOGY",
            "CHEMISTRY",
            "CHEMISTRY",
            "CHEMISTRY",
            "CHEMISTRY",
            "HEMATOLOGY",
            "CHEMISTRY",
            "CHEMISTRY",
            "CHEMISTRY",
            "CHEMISTRY",
            "CHEMISTRY",
            "CHEMISTRY",
            "URINALYSIS",
            "CHEMISTRY",
            "HEMATOLOGY",
            "CHEMISTRY",
            "CHEMISTRY",
            "HEMATOLOGY",
            "HEMATOLOGY",
            "CHEMISTRY",
            "URINALYSIS",
            "HEMATOLOGY",
            "HEMATOLOGY",
            "HEMATOLOGY",
            "HEMATOLOGY",
            "HEMATOLOGY",
            "CHEMISTRY",
            "URINALYSIS",
            "CHEMISTRY",
            "HEMATOLOGY",
            "CHEMISTRY",
            "HEMATOLOGY",
            "URINALYSIS",
            "CHEMISTRY",
            "URINALYSIS",
            "HEMATOLOGY",
            "CHEMISTRY",
            "CHEMISTRY",
            "CHEMISTRY",
            "CHEMISTRY",
            "HEMATOLOGY",
            "CHEMISTRY",
            "CHEMISTRY",
            "CHEMISTRY",
            "CHEMISTRY",
            "CHEMISTRY",
            "CHEMISTRY",
            "CHEMISTRY",
            "HEMATOLOGY",
            "CHEMISTRY",
            "CHEMISTRY",
            "HEMATOLOGY",
            "HEMATOLOGY",
            "CHEMISTRY",
            "HEMATOLOGY",
            "HEMATOLOGY",
            "HEMATOLOGY",
            "HEMATOLOGY",
            "HEMATOLOGY",
            "CHEMISTRY",
            "CHEMISTRY",
            "HEMATOLOGY",
            "CHEMISTRY",
            "HEMATOLOGY",
            "CHEMISTRY",
            "HEMATOLOGY",
            "CHEMISTRY",
            "CHEMISTRY",
            "CHEMISTRY",
            "CHEMISTRY",
            "HEMATOLOGY",
            "CHEMISTRY",
            "CHEMISTRY",
            "CHEMISTRY",
            "CHEMISTRY",
            "CHEMISTRY",
            "CHEMISTRY",
            "CHEMISTRY",
            "HEMATOLOGY",
            "CHEMISTRY",
            "CHEMISTRY",
            "HEMATOLOGY",
            "HEMATOLOGY",
            "CHEMISTRY",
            "HEMATOLOGY",
            "HEMATOLOGY",
            "HEMATOLOGY",
            "HEMATOLOGY",
            "HEMATOLOGY",
            "CHEMISTRY",
            "CHEMISTRY",
            "HEMATOLOGY",
            "CHEMISTRY",
            "HEMATOLOGY",
            "CHEMISTRY",
            "HEMATOLOGY",
            "CHEMISTRY",
            "CHEMISTRY",
            "CHEMISTRY",
            "CHEMISTRY",
            "HEMATOLOGY",
            "CHEMISTRY",
            "CHEMISTRY",
            "CHEMISTRY",
            "CHEMISTRY",
            "CHEMISTRY",
            "CHEMISTRY",
            "URINALYSIS",
            "CHEMISTRY",
            "HEMATOLOGY",
            "CHEMISTRY",
            "CHEMISTRY",
            "HEMATOLOGY",
            "HEMATOLOGY",
            "CHEMISTRY",
            "URINALYSIS",
            "HEMATOLOGY",
            "HEMATOLOGY",
            "HEMATOLOGY",
            "HEMATOLOGY",
            "HEMATOLOGY",
            "CHEMISTRY",
            "URINALYSIS",
            "CHEMISTRY",
            "HEMATOLOGY",
            "CHEMISTRY",
            "HEMATOLOGY",
            "URINALYSIS",
            "CHEMISTRY",
            "URINALYSIS",
            "HEMATOLOGY",
            "CHEMISTRY",
            "CHEMISTRY",
            "CHEMISTRY",
            "CHEMISTRY",
            "HEMATOLOGY",
            "CHEMISTRY",
            "CHEMISTRY",
            "CHEMISTRY",
            "CHEMISTRY",
            "CHEMISTRY",
            "CHEMISTRY",
            "CHEMISTRY",
            "HEMATOLOGY",
            "CHEMISTRY",
            "CHEMISTRY",
            "HEMATOLOGY",
            "HEMATOLOGY",
            "CHEMISTRY",
            "HEMATOLOGY",
            "HEMATOLOGY",
            "HEMATOLOGY",
            "HEMATOLOGY",
            "HEMATOLOGY",
            "CHEMISTRY",
            "CHEMISTRY",
            "HEMATOLOGY",
            "CHEMISTRY",
            "HEMATOLOGY",
            "CHEMISTRY",
            "HEMATOLOGY",
            "CHEMISTRY",
            "CHEMISTRY",
            "CHEMISTRY",
            "CHEMISTRY",
            "HEMATOLOGY",
            "CHEMISTRY",
            "CHEMISTRY",
            "CHEMISTRY",
            "CHEMISTRY",
            "CHEMISTRY",
            "CHEMISTRY",
            "URINALYSIS",
            "CHEMISTRY",
            "HEMATOLOGY",
            "CHEMISTRY",
            "CHEMISTRY",
            "HEMATOLOGY",
            "HEMATOLOGY",
            "CHEMISTRY",
            "URINALYSIS",
            "HEMATOLOGY",
            "HEMATOLOGY",
            "HEMATOLOGY",
            "HEMATOLOGY",
            "HEMATOLOGY",
            "CHEMISTRY",
            "URINALYSIS",
            "CHEMISTRY",
            "HEMATOLOGY",
            "CHEMISTRY",
            "HEMATOLOGY",
            "URINALYSIS",
            "OTHER",
            "CHEMISTRY",
            "URINALYSIS",
            "OTHER",
            "HEMATOLOGY",
            "HEMATOLOGY",
            "HEMATOLOGY",
            "HEMATOLOGY",
            "HEMATOLOGY",
            "HEMATOLOGY",
            "HEMATOLOGY",
            "HEMATOLOGY",
            "HEMATOLOGY",
            "HEMATOLOGY",
            "HEMATOLOGY",
            "HEMATOLOGY",
            "OTHER",
            "HEMATOLOGY",
            "CHEMISTRY",
            "CHEMISTRY",
            "CHEMISTRY",
            "HEMATOLOGY",
            "CHEMISTRY",
            "HEMATOLOGY",
            "CHEMISTRY",
            "CHEMISTRY",
            "CHEMISTRY",
            "CHEMISTRY",
            "CHEMISTRY",
            "CHEMISTRY",
            "URINALYSIS",
            "CHEMISTRY",
            "HEMATOLOGY",
            "CHEMISTRY",
            "CHEMISTRY",
            "HEMATOLOGY",
            "HEMATOLOGY",
            "CHEMISTRY",
            "URINALYSIS",
            "HEMATOLOGY",
            "HEMATOLOGY",
            "HEMATOLOGY",
            "HEMATOLOGY",
            "HEMATOLOGY",
            "CHEMISTRY",
            "URINALYSIS",
            "CHEMISTRY",
            "HEMATOLOGY",
            "HEMATOLOGY",
            "CHEMISTRY",
            "HEMATOLOGY",
            "URINALYSIS",
            "CHEMISTRY",
            "URINALYSIS",
            "HEMATOLOGY",
            "CHEMISTRY",
            "CHEMISTRY",
            "CHEMISTRY",
            "CHEMISTRY",
            "HEMATOLOGY",
            "CHEMISTRY",
            "CHEMISTRY",
            "CHEMISTRY",
            "CHEMISTRY",
            "CHEMISTRY",
            "CHEMISTRY",
            "CHEMISTRY",
            "HEMATOLOGY",
            "CHEMISTRY",
            "CHEMISTRY",
            "HEMATOLOGY",
            "HEMATOLOGY",
            "CHEMISTRY",
            "HEMATOLOGY",
            "HEMATOLOGY",
            "HEMATOLOGY",
            "HEMATOLOGY",
            "HEMATOLOGY",
            "CHEMISTRY",
            "CHEMISTRY",
            "HEMATOLOGY",
            "CHEMISTRY",
            "HEMATOLOGY",
            "CHEMISTRY",
            "HEMATOLOGY",
            "CHEMISTRY",
            "CHEMISTRY",
            "CHEMISTRY",
            "CHEMISTRY",
            "HEMATOLOGY",
            "CHEMISTRY",
            "CHEMISTRY",
            "CHEMISTRY",
            "CHEMISTRY",
            "CHEMISTRY",
            "CHEMISTRY",
            "CHEMISTRY",
            "HEMATOLOGY",
            "CHEMISTRY",
            "CHEMISTRY",
            "HEMATOLOGY",
            "HEMATOLOGY",
            "CHEMISTRY",
            "HEMATOLOGY",
            "HEMATOLOGY",
            "HEMATOLOGY",
            "HEMATOLOGY",
            "HEMATOLOGY",
            "CHEMISTRY",
            "CHEMISTRY",
            "HEMATOLOGY",
            "CHEMISTRY",
            "HEMATOLOGY",
            "CHEMISTRY",
            "HEMATOLOGY",
            "CHEMISTRY",
            "CHEMISTRY",
            "CHEMISTRY",
            "CHEMISTRY",
            "HEMATOLOGY",
            "CHEMISTRY",
            "CHEMISTRY",
            "CHEMISTRY",
            "CHEMISTRY",
            "CHEMISTRY",
            "CHEMISTRY",
            "CHEMISTRY",
            "HEMATOLOGY",
            "CHEMISTRY",
            "CHEMISTRY",
            "HEMATOLOGY",
            "HEMATOLOGY",
            "CHEMISTRY",
            "HEMATOLOGY",
            "HEMATOLOGY",
            "HEMATOLOGY",
            "HEMATOLOGY",
            "HEMATOLOGY",
            "CHEMISTRY",
            "CHEMISTRY",
            "HEMATOLOGY",
            "CHEMISTRY",
            "HEMATOLOGY",
            "CHEMISTRY",
            "HEMATOLOGY",
            "CHEMISTRY",
            "CHEMISTRY",
            "CHEMISTRY",
            "CHEMISTRY",
            "HEMATOLOGY",
            "CHEMISTRY",
            "CHEMISTRY",
            "CHEMISTRY",
            "CHEMISTRY",
            "CHEMISTRY",
            "CHEMISTRY",
            "URINALYSIS",
            "CHEMISTRY",
            "HEMATOLOGY",
            "CHEMISTRY",
            "CHEMISTRY",
            "HEMATOLOGY",
            "HEMATOLOGY",
            "CHEMISTRY",
            "URINALYSIS",
            "HEMATOLOGY",
            "HEMATOLOGY",
            "HEMATOLOGY",
            "HEMATOLOGY",
            "HEMATOLOGY",
            "CHEMISTRY",
            "URINALYSIS",
            "CHEMISTRY",
            "HEMATOLOGY",
            "CHEMISTRY",
            "HEMATOLOGY",
            "URINALYSIS",
            "CHEMISTRY",
            "URINALYSIS",
            "HEMATOLOGY",
            "CHEMISTRY",
            "CHEMISTRY",
            "CHEMISTRY",
            "CHEMISTRY",
            "HEMATOLOGY",
            "CHEMISTRY",
            "CHEMISTRY",
            "CHEMISTRY",
            "CHEMISTRY",
            "CHEMISTRY",
            "CHEMISTRY",
            "CHEMISTRY",
            "HEMATOLOGY",
            "CHEMISTRY",
            "CHEMISTRY",
            "HEMATOLOGY",
            "HEMATOLOGY",
            "CHEMISTRY",
            "HEMATOLOGY",
            "HEMATOLOGY",
            "HEMATOLOGY",
            "HEMATOLOGY",
            "HEMATOLOGY",
            "CHEMISTRY",
            "CHEMISTRY",
            "HEMATOLOGY",
            "CHEMISTRY",
            "HEMATOLOGY",
            "CHEMISTRY",
            "HEMATOLOGY",
            "CHEMISTRY",
            "CHEMISTRY",
            "CHEMISTRY",
            "CHEMISTRY",
            "HEMATOLOGY",
            "CHEMISTRY",
            "CHEMISTRY",
            "CHEMISTRY",
            "CHEMISTRY",
            "CHEMISTRY",
            "URINALYSIS",
            "CHEMISTRY",
            "HEMATOLOGY",
            "CHEMISTRY",
            "CHEMISTRY",
            "HEMATOLOGY",
            "HEMATOLOGY",
            "URINALYSIS",
            "HEMATOLOGY",
            "HEMATOLOGY",
            "HEMATOLOGY",
            "HEMATOLOGY",
            "HEMATOLOGY",
            "URINALYSIS",
            "CHEMISTRY",
            "HEMATOLOGY",
            "CHEMISTRY",
            "HEMATOLOGY",
            "URINALYSIS",
            "CHEMISTRY",
            "URINALYSIS",
            "HEMATOLOGY"
          ],
          "LBORRES": [
            "4.5",
            "60",
            "13",
            "22",
            "0.09",
            "0.5",
            "14",
            "9.6",
            "227",
            "142",
            "104",
            "NORMAL",
            "1.1",
            "0.14",
            "10",
            "85",
            "43.0",
            "13.9",
            "3.6",
            "0",
            "1.87",
            "28",
            "32",
            "87",
            "0.45",
            "138",
            "5",
            "4.0",
            "418",
            "7.4",
            "5.00",
            "1.013",
            ".94",
            "5.1",
            "0",
            "302",
            "8.60",
            "4.1",
            "61",
            "9",
            "18",
            "0.05",
            "0.4",
            "15",
            "9.2",
            "198",
            "99",
            "108",
            "NORMAL",
            "1.0",
            "0.07",
            "9",
            "81",
            "43.0",
            "13.7",
            "4.4",
            "0",
            "1.20",
            "28",
            "32",
            "87",
            "0.41",
            "141",
            "5",
            "4.1",
            "360",
            "6.8",
            "4.90",
            "1.015",
            "4.2",
            "0",
            "4.87",
            "4.7",
            "69",
            "11",
            "25",
            "0.09",
            "0.5",
            "12",
            "9.4",
            "220",
            "140",
            "111",
            "1.0",
            "0.08",
            "12",
            "94",
            "45.0",
            "13.8",
            "4.7",
            "2.34",
            "28",
            "31",
            "90",
            "0.69",
            "143",
            "4.1",
            "397",
            "7.6",
            "5.00",
            "4.3",
            "7.73",
            "4.3",
            "65",
            "10",
            "22",
            "0.09",
            "0.4",
            "13",
            "9.3",
            "203",
            "134",
            "106",
            "0.9",
            "0.09",
            "10",
            "107",
            "39.0",
            "13.1",
            "4.4",
            "1.68",
            "28",
            "34",
            "84",
            "0.35",
            "142",
            "3.6",
            "388",
            "7.1",
            "4.60",
            "4.0",
            "7.20",
            "4.3",
            "62",
            "7",
            "16",
            "0.11",
            "0.3",
            "11",
            "9.2",
            "196",
            "132",
            "107",
            "0.9",
            "0.13",
            "9",
            "94",
            "41.0",
            "13.3",
            "4.6",
            "1.39",
            "28",
            "32",
            "87",
            "0.40",
            "141",
            "4.0",
            "444",
            "6.9",
            "4.80",
            "4.6",
            "7.06",
            "4.4",
            "57",
            "14",
            "22",
            "0.06",
            "0.5",
            "13",
            "9.3",
            "205",
            "167",
            "103",
            "NORMAL",
            "1.1",
            "0.15",
            "10",
            "117",
            "43.0",
            "14.1",
            "4.1",
            "0",
            "1.68",
            "29",
            "33",
            "87",
            "0.44",
            "140",
            "5",
            "4.1",
            "406",
            "7.7",
            "4.90",
            "1.007",
            "4.4",
            "0",
            "7.94",
            "4.5",
            "59",
            "13",
            "24",
            "0.04",
            "0.5",
            "14",
            "9.8",
            "211",
            "176",
            "108",
            "1.0",
            "0.05",
            "9",
            "88",
            "43.0",
            "13.8",
            "4.4",
            "1.25",
            "27",
            "32",
            "84",
            "0.50",
            "141",
            "3.9",
            "362",
            "7.4",
            "5.10",
            "4.7",
            "7.58",
            "4.3",
            "56",
            "13",
            "22",
            "0.07",
            "0.4",
            "11",
            "9.5",
            "208",
            "155",
            "105",
            "1.0",
            "0.12",
            "8",
            "97",
            "45.0",
            "14.4",
            "4.8",
            "1.27",
            "28",
            "32",
            "87",
            "0.49",
            "144",
            "3.8",
            "399",
            "7.3",
            "5.20",
            "4.7",
            "6.55",
            "4.5",
            "58",
            "25",
            "46",
            "0.08",
            "0.5",
            "11",
            "9.4",
            "184",
            "1556",
            "103",
            "NORMAL",
            "1.0",
            "0.25",
            "9",
            "87",
            "41.0",
            "13.8",
            "4.9",
            "0",
            "1.53",
            "29",
            "34",
            "85",
            "0.47",
            "142",
            "5",
            "3.9",
            "361",
            "7.4",
            "4.80",
            "1.007",
            "4.7",
            "0",
            "7.66",
            "3.9",
            "66",
            "17",
            "20",
            "0.04",
            "0.5",
            "8",
            "8.9",
            "213",
            "96",
            "107",
            "NORMAL",
            "0.9",
            "0.07",
            "11",
            "95",
            "40.0",
            "13.7",
            "4.3",
            "0",
            "1.77",
            "32",
            "34",
            "94",
            "0.26",
            "143",
            "6",
            "4.0",
            "341",
            "6.8",
            "4.30",
            "1.011",
            "3.66",
            "3.3",
            "0",
            "555",
            "5.08",
            "3.8",
            "66",
            "17",
            "20",
            "0.03",
            "0.5",
            "12",
            "9.4",
            "203",
            "75",
            "106",
            "NORMAL",
            "0.9",
            "0.10",
            "14",
            "87",
            "40.0",
            "12.9",
            "4.8",
            "0",
            "1.28",
            "30",
            "32",
            "92",
            "0.31",
            "139",
            "6",
            "3.8",
            "341",
            "6.6",
            "4.40",
            "1.016",
            "3.5",
            "0",
            "6.73",
            "4.0",
            "61",
            "14",
            "20",
            "0.03",
            "0.4",
            "9",
            "9.1",
            "177",
            "119",
            "105",
            "0.9",
            "0.06",
            "11",
            "87",
            "38.0",
            "12.5",
            "4.4",
            "1.78",
            "31",
            "33",
            "93",
            "0.29",
            "137",
            "4.0",
            "308",
            "6.5",
            "4.10",
            "3.2",
            "5.28",
            "3.9",
            "63",
            "17",
            "23",
            "0.04",
            "0.5",
            "9",
            "9.4",
            "183",
            "95",
            "106",
            "0.9",
            "0.05",
            "11",
            "86",
            "39.0",
            "13.0",
            "4.5",
            "1.36",
            "31",
            "34",
            "91",
            "0.27",
            "137",
            "4.0",
            "330",
            "6.8",
            "4.30",
            "3.5",
            "4.56",
            "4.0",
            "56",
            "18",
            "25",
            "0.05",
            "0.3",
            "10",
            "9.1",
            "177",
            "142",
            "105",
            "0.9",
            "0.13",
            "11",
            "83",
            "40.0",
            "12.6",
            "3.5",
            "1.59",
            "29",
            "32",
            "90",
            "0.23",
            "139",
            "3.6",
            "356",
            "6.8",
            "4.40",
            "3.4",
            "4.48",
            "3.9",
            "57",
            "13",
            "20",
            "0.03",
            "0.6",
            "13",
            "9.0",
            "190",
            "85",
            "110",
            "NORMAL",
            "1.0",
            "0.29",
            "11",
            "94",
            "38.0",
            "12.9",
            "4.6",
            "0",
            "1.72",
            "30",
            "34",
            "90",
            "0.31",
            "139",
            "5",
            "4.5",
            "296",
            "6.5",
            "4.20",
            "1.022",
            "3.6",
            "0",
            "5.67",
            "4.0",
            "60",
            "19",
            "25",
            "0.03",
            "0.5",
            "10",
            "9.6",
            "186",
            "99",
            "105",
            "0.9",
            "0.22",
            "13",
            "92",
            "39.0",
            "13.4",
            "4.2",
            "1.77",
            "30",
            "35",
            "87",
            "0.35",
            "138",
            "3.9",
            "346",
            "7.0",
            "4.40",
            "3.0",
            "5.07",
            "4.2",
            "64",
            "19",
            "21",
            "0.05",
            "0.4",
            "12",
            "8.8",
            "202",
            "128",
            "108",
            "1.0",
            "0.21",
            "12",
            "88",
            "40.0",
            "13.1",
            "4.5",
            "1.90",
            "30",
            "33",
            "92",
            "0.35",
            "143",
            "4.1",
            "314",
            "7.0",
            "4.30",
            "3.5",
            "5.91",
            "4.1",
            "58",
            "15",
            "20",
            "0.04",
            "0.5",
            "8",
            "9.6",
            "185",
            "113",
            "105",
            "NORMAL",
            "1.0",
            "0.09",
            "11",
            "88",
            "38.0",
            "12.9",
            "4.4",
            "0",
            "1.63",
            "31",
            "34",
            "90",
            "0.34",
            "139",
            "7",
            "3.9",
            "370",
            "7.0",
            "4.20",
            "1.017",
            "3.2",
            "0",
            "5.53",
            "3.8",
            "53",
            "14",
            "17",
            "0.03",
            "0.5",
            "10",
            "9.0",
            "188",
            "98",
            "107",
            "0.9",
            "0.09",
            "13",
            "95",
            "37.0",
            "12.4",
            "4.1",
            "1.78",
            "30",
            "33",
            "91",
            "0.33",
            "143",
            "3.9",
            "315",
            "6.5",
            "4.10",
            "3.3",
            "5.57",
            "3.8",
            "76",
            "34",
            "31",
            "0.16",
            "0.4",
            "18",
            "9.6",
            "157",
            "200",
            "106",
            "NORMAL",
            "1.0",
            "0.04",
            "29",
            "139",
            "49.0",
            "14.7",
            "4.2",
            "0",
            "2.11",
            "28",
            "30",
            "93",
            "0.63",
            "140",
            "6",
            "3.4",
            "572",
            "6.6",
            "5.20",
            "1.018",
            ".09",
            "4.4",
            "0",
            "597",
            "9.40",
            "0.00",
            "0.08",
            "44.0",
            "13.7",
            "1.59",
            "29",
            "31",
            "91",
            "0.72",
            "495",
            "4.80",
            ".12",
            "7.95",
            "3.8",
            "81",
            "33",
            "1",
            "25",
            "0.09",
            "0.5",
            "16",
            "9.5",
            "158",
            "170",
            "100",
            "NORMAL",
            "0.9",
            "0.07",
            "30",
            "141",
            "48.0",
            "15.0",
            "4.3",
            "0",
            "2.09",
            "30",
            "31",
            "96",
            "0.61",
            "136",
            "6",
            "3.5",
            "500",
            "1",
            "6.6",
            "5.00",
            "1.017",
            "4.0",
            "0",
            "7.09",
            "3.6",
            "84",
            "44",
            "33",
            "0.00",
            "0.6",
            "18",
            "9.4",
            "158",
            "158",
            "101",
            "1.0",
            "0.00",
            "33",
            "186",
            "47.0",
            "14.6",
            "4.2",
            "2.75",
            "29",
            "31",
            "93",
            "0.65",
            "138",
            "3.9",
            "416",
            "6.7",
            "5.00",
            "3.9",
            "8.09",
            "3.8",
            "87",
            "43",
            "30",
            "0.07",
            "0.5",
            "20",
            "9.8",
            "161",
            "174",
            "106",
            "1.0",
            "0.13",
            "32",
            "168",
            "46.0",
            "14.8",
            "4.4",
            "1.33",
            "30",
            "32",
            "92",
            "0.58",
            "139",
            "3.7",
            "487",
            "6.7",
            "5.00",
            "4.0",
            "7.47",
            "3.7",
            "80",
            "48",
            "37",
            "0.00",
            "0.7",
            "15",
            "9.4",
            "156",
            "178",
            "101",
            "1.0",
            "0.29",
            "31",
            "137",
            "49.0",
            "15.1",
            "3.9",
            "0.86",
            "30",
            "31",
            "97",
            "0.57",
            "137",
            "3.5",
            "490",
            "6.7",
            "5.10",
            "3.8",
            "7.16",
            "3.7",
            "77",
            "42",
            "33",
            "0.00",
            "0.5",
            "21",
            "9.3",
            "153",
            "186",
            "100",
            "NORMAL",
            "1.3",
            "0.19",
            "31",
            "211",
            "44.0",
            "13.9",
            "4.0",
            "0",
            "1.56",
            "29",
            "32",
            "92",
            "0.88",
            "136",
            "5",
            "4.0",
            "383",
            "6.6",
            "4.80",
            "1.023",
            "3.9",
            "0",
            "6.25",
            "3.9",
            "81",
            "48",
            "40",
            "0.00",
            "0.6",
            "15",
            "9.7",
            "174",
            "147",
            "100",
            "1.0",
            "0.00",
            "37",
            "164",
            "52.0",
            "15.3",
            "4.3",
            "0.83",
            "29",
            "29",
            "100",
            "0.32",
            "137",
            "3.6",
            "409",
            "6.9",
            "5.20",
            "3.4",
            "6.38",
            "3.7",
            "77",
            "31",
            "29",
            "0.16",
            "0.5",
            "17",
            "9.7",
            "162",
            "111",
            "NORMAL",
            "1.0",
            "0.07",
            "30",
            "171",
            "49.0",
            "14.9",
            "0",
            "2.06",
            "30",
            "31",
            "99",
            "1.15",
            "6",
            "3.5",
            "515",
            "7.0",
            "4.90",
            "1.023",
            "3.6",
            "0",
            "12.41"
          ],
          "LBORRESU": [
            "g/dL",
            "U/L",
            "U/L",
            "U/L",
            "10^9/L",
            "mg/dL",
            "mg/dL",
            "mg/dL",
            "mg/dL",
            "U/L",
            "mEq/L",
            "",
            "mg/dL",
            "10^9/L",
            "U/L",
            "mg/dL",
            "%",
            "g/dL",
            "mEq/L",
            "",
            "10^9/L",
            "pg",
            "g/dL",
            "fL",
            "10^9/L",
            "mEq/L",
            "",
            "mg/dL",
            "10^9/L",
            "g/dL",
            "10^12/L",
            "",
            "mIU/L",
            "mg/dL",
            "",
            "ng/L",
            "10^9/L",
            "g/dL",
            "U/L",
            "U/L",
            "U/L",
            "10^9/L",
            "mg/dL",
            "mg/dL",
            "mg/dL",
            "mg/dL",
            "U/L",
            "mEq/L",
            "",
            "mg/dL",
            "10^9/L",
            "U/L",
            "mg/dL",
            "%",
            "g/dL",
            "mEq/L",
            "",
            "10^9/L",
            "pg",
            "g/dL",
            "fL",
            "10^9/L",
            "mEq/L",
            "",
            "mg/dL",
            "10^9/L",
            "g/dL",
            "10^12/L",
            "",
            "mg/dL",
            "",
            "10^9/L",
            "g/dL",
            "U/L",
            "U/L",
            "U/L",
            "10^9/L",
            "mg/dL",
            "mg/dL",
            "mg/dL",
            "mg/dL",
            "U/L",
            "mEq/L",
            "mg/dL",
            "10^9/L",
            "U/L",
            "mg/dL",
            "%",
            "g/dL",
            "mEq/L",
            "10^9/L",
            "pg",
            "g/dL",
            "fL",
            "10^9/L",
            "mEq/L",
            "mg/dL",
            "10^9/L",
            "g/dL",
            "10^12/L",
            "mg/dL",
            "10^9/L",
            "g/dL",
            "U/L",
            "U/L",
            "U/L",
            "10^9/L",
            "mg/dL",
            "mg/dL",
            "mg/dL",
            "mg/dL",
            "U/L",
            "mEq/L",
            "mg/dL",
            "10^9/L",
            "U/L",
            "mg/dL",
            "%",
            "g/dL",
            "mEq/L",
            "10^9/L",
            "pg",
            "g/dL",
            "fL",
            "10^9/L",
            "mEq/L",
            "mg/dL",
            "10^9/L",
            "g/dL",
            "10^12/L",
            "mg/dL",
            "10^9/L",
            "g/dL",
            "U/L",
            "U/L",
            "U/L",
            "10^9/L",
            "mg/dL",
            "mg/dL",
            "mg/dL",
            "mg/dL",
            "U/L",
            "mEq/L",
            "mg/dL",
            "10^9/L",
            "U/L",
            "mg/dL",
            "%",
            "g/dL",
            "mEq/L",
            "10^9/L",
            "pg",
            "g/dL",
            "fL",
            "10^9/L",
            "mEq/L",
            "mg/dL",
            "10^9/L",
            "g/dL",
            "10^12/L",
            "mg/dL",
            "10^9/L",
            "g/dL",
            "U/L",
            "U/L",
            "U/L",
            "10^9/L",
            "mg/dL",
            "mg/dL",
            "mg/dL",
            "mg/dL",
            "U/L",
            "mEq/L",
            "",
            "mg/dL",
            "10^9/L",
            "U/L",
            "mg/dL",
            "%",
            "g/dL",
            "mEq/L",
            "",
            "10^9/L",
            "pg",
            "g/dL",
            "fL",
            "10^9/L",
            "mEq/L",
            "",
            "mg/dL",
            "10^9/L",
            "g/dL",
            "10^12/L",
            "",
            "mg/dL",
            "",
            "10^9/L",
            "g/dL",
            "U/L",
            "U/L",
            "U/L",
            "10^9/L",
            "mg/dL",
            "mg/dL",
            "mg/dL",
            "mg/dL",
            "U/L",
            "mEq/L",
            "mg/dL",
            "10^9/L",
            "U/L",
            "mg/dL",
            "%",
            "g/dL",
            "mEq/L",
            "10^9/L",
            "pg",
            "g/dL",
            "fL",
            "10^9/L",
            "mEq/L",
            "mg/dL",
            "10^9/L",
            "g/dL",
            "10^12/L",
            "mg/dL",
            "10^9/L",
            "g/dL",
            "U/L",
            "U/L",
            "U/L",
            "10^9/L",
            "mg/dL",
            "mg/dL",
            "mg/dL",
            "mg/dL",
            "U/L",
            "mEq/L",
            "mg/dL",
            "10^9/L",
            "U/L",
            "mg/dL",
            "%",
            "g/dL",
            "mEq/L",
            "10^9/L",
            "pg",
            "g/dL",
            "fL",
            "10^9/L",
            "mEq/L",
            "mg/dL",
            "10^9/L",
            "g/dL",
            "10^12/L",
            "mg/dL",
            "10^9/L",
            "g/dL",
            "U/L",
            "U/L",
            "U/L",
            "10^9/L",
            "mg/dL",
            "mg/dL",
            "mg/dL",
            "mg/dL",
            "U/L",
            "mEq/L",
            "",
            "mg/dL",
            "10^9/L",
            "U/L",
            "mg/dL",
            "%",
            "g/dL",
            "mEq/L",
            "",
            "10^9/L",
            "pg",
            "g/dL",
            "fL",
            "10^9/L",
            "mEq/L",
            "",
            "mg/dL",
            "10^9/L",
            "g/dL",
            "10^12/L",
            "",
            "mg/dL",
            "",
            "10^9/L",
            "g/dL",
            "U/L",
            "U/L",
            "U/L",
            "10^9/L",
            "mg/dL",
            "mg/dL",
            "mg/dL",
            "mg/dL",
            "U/L",
            "mEq/L",
            "",
            "mg/dL",
            "10^9/L",
            "U/L",
            "mg/dL",
            "%",
            "g/dL",
            "mEq/L",
            "",
            "10^9/L",
            "pg",
            "g/dL",
            "fL",
            "10^9/L",
            "mEq/L",
            "",
            "mg/dL",
            "10^9/L",
            "g/dL",
            "10^12/L",
            "",
            "mIU/L",
            "mg/dL",
            "",
            "ng/L",
            "10^9/L",
            "g/dL",
            "U/L",
            "U/L",
            "U/L",
            "10^9/L",
            "mg/dL",
            "mg/dL",
            "mg/dL",
            "mg/dL",
            "U/L",
            "mEq/L",
            "",
            "mg/dL",
            "10^9/L",
            "U/L",
            "mg/dL",
            "%",
            "g/dL",
            "mEq/L",
            "",
            "10^9/L",
            "pg",
            "g/dL",
            "fL",
            "10^9/L",
            "mEq/L",
            "",
            "mg/dL",
            "10^9/L",
            "g/dL",
            "10^12/L",
            "",
            "mg/dL",
            "",
            "10^9/L",
            "g/dL",
            "U/L",
            "U/L",
            "U/L",
            "10^9/L",
            "mg/dL",
            "mg/dL",
            "mg/dL",
            "mg/dL",
            "U/L",
            "mEq/L",
            "mg/dL",
            "10^9/L",
            "U/L",
            "mg/dL",
            "%",
            "g/dL",
            "mEq/L",
            "10^9/L",
            "pg",
            "g/dL",
            "fL",
            "10^9/L",
            "mEq/L",
            "mg/dL",
            "10^9/L",
            "g/dL",
            "10^12/L",
            "mg/dL",
            "10^9/L",
            "g/dL",
            "U/L",
            "U/L",
            "U/L",
            "10^9/L",
            "mg/dL",
            "mg/dL",
            "mg/dL",
            "mg/dL",
            "U/L",
            "mEq/L",
            "mg/dL",
            "10^9/L",
            "U/L",
            "mg/dL",
            "%",
            "g/dL",
            "mEq/L",
            "10^9/L",
            "pg",
            "g/dL",
            "fL",
            "10^9/L",
            "mEq/L",
            "mg/dL",
            "10^9/L",
            "g/dL",
            "10^12/L",
            "mg/dL",
            "10^9/L",
            "g/dL",
            "U/L",
            "U/L",
            "U/L",
            "10^9/L",
            "mg/dL",
            "mg/dL",
            "mg/dL",
            "mg/dL",
            "U/L",
            "mEq/L",
            "mg/dL",
            "10^9/L",
            "U/L",
            "mg/dL",
            "%",
            "g/dL",
            "mEq/L",
            "10^9/L",
            "pg",
            "g/dL",
            "fL",
            "10^9/L",
            "mEq/L",
            "mg/dL",
            "10^9/L",
            "g/dL",
            "10^12/L",
            "mg/dL",
            "10^9/L",
            "g/dL",
            "U/L",
            "U/L",
            "U/L",
            "10^9/L",
            "mg/dL",
            "mg/dL",
            "mg/dL",
            "mg/dL",
            "U/L",
            "mEq/L",
            "",
            "mg/dL",
            "10^9/L",
            "U/L",
            "mg/dL",
            "%",
            "g/dL",
            "mEq/L",
            "",
            "10^9/L",
            "pg",
            "g/dL",
            "fL",
            "10^9/L",
            "mEq/L",
            "",
            "mg/dL",
            "10^9/L",
            "g/dL",
            "10^12/L",
            "",
            "mg/dL",
            "",
            "10^9/L",
            "g/dL",
            "U/L",
            "U/L",
            "U/L",
            "10^9/L",
            "mg/dL",
            "mg/dL",
            "mg/dL",
            "mg/dL",
            "U/L",
            "mEq/L",
            "mg/dL",
            "10^9/L",
            "U/L",
            "mg/dL",
            "%",
            "g/dL",
            "mEq/L",
            "10^9/L",
            "pg",
            "g/dL",
            "fL",
            "10^9/L",
            "mEq/L",
            "mg/dL",
            "10^9/L",
            "g/dL",
            "10^12/L",
            "mg/dL",
            "10^9/L",
            "g/dL",
            "U/L",
            "U/L",
            "U/L",
            "10^9/L",
            "mg/dL",
            "mg/dL",
            "mg/dL",
            "mg/dL",
            "U/L",
            "mEq/L",
            "mg/dL",
            "10^9/L",
            "U/L",
            "mg/dL",
            "%",
            "g/dL",
            "mEq/L",
            "10^9/L",
            "pg",
            "g/dL",
            "fL",
            "10^9/L",
            "mEq/L",
            "mg/dL",
            "10^9/L",
            "g/dL",
            "10^12/L",
            "mg/dL",
            "10^9/L",
            "g/dL",
            "U/L",
            "U/L",
            "U/L",
            "10^9/L",
            "mg/dL",
            "mg/dL",
            "mg/dL",
            "mg/dL",
            "U/L",
            "mEq/L",
            "",
            "mg/dL",
            "10^9/L",
            "U/L",
            "mg/dL",
            "%",
            "g/dL",
            "mEq/L",
            "",
            "10^9/L",
            "pg",
            "g/dL",
            "fL",
            "10^9/L",
            "mEq/L",
            "",
            "mg/dL",
            "10^9/L",
            "g/dL",
            "10^12/L",
            "",
            "mg/dL",
            "",
            "10^9/L",
            "g/dL",
            "U/L",
            "U/L",
            "U/L",
            "10^9/L",
            "mg/dL",
            "mg/dL",
            "mg/dL",
            "mg/dL",
            "U/L",
            "mEq/L",
            "mg/dL",
            "10^9/L",
            "U/L",
            "mg/dL",
            "%",
            "g/dL",
            "mEq/L",
            "10^9/L",
            "pg",
            "g/dL",
            "fL",
            "10^9/L",
            "mEq/L",
            "mg/dL",
            "10^9/L",
            "g/dL",
            "10^12/L",
            "mg/dL",
            "10^9/L",
            "g/dL",
            "U/L",
            "U/L",
            "U/L",
            "10^9/L",
            "mg/dL",
            "mg/dL",
            "mg/dL",
            "mg/dL",
            "U/L",
            "mEq/L",
            "",
            "mg/dL",
            "10^9/L",
            "U/L",
            "mg/dL",
            "%",
            "g/dL",
            "mEq/L",
            "",
            "10^9/L",
            "pg",
            "g/dL",
            "fL",
            "10^9/L",
            "mEq/L",
            "",
            "mg/dL",
            "10^9/L",
            "g/dL",
            "10^12/L",
            "",
            "mIU/L",
            "mg/dL",
            "",
            "ng/L",
            "10^9/L",
            "10^9/L",
            "10^9/L",
            "%",
            "g/dL",
            "10^9/L",
            "pg",
            "g/dL",
            "fL",
            "10^9/L",
            "10^9/L",
            "10^12/L",
            "mIU/L",
            "10^9/L",
            "g/dL",
            "U/L",
            "U/L",
            "",
            "U/L",
            "10^9/L",
            "mg/dL",
            "mg/dL",
            "mg/dL",
            "mg/dL",
            "U/L",
            "mEq/L",
            "",
            "mg/dL",
            "10^9/L",
            "U/L",
            "mg/dL",
            "%",
            "g/dL",
            "mEq/L",
            "",
            "10^9/L",
            "pg",
            "g/dL",
            "fL",
            "10^9/L",
            "mEq/L",
            "",
            "mg/dL",
            "10^9/L",
            "",
            "g/dL",
            "10^12/L",
            "",
            "mg/dL",
            "",
            "10^9/L",
            "g/dL",
            "U/L",
            "U/L",
            "U/L",
            "10^9/L",
            "mg/dL",
            "mg/dL",
            "mg/dL",
            "mg/dL",
            "U/L",
            "mEq/L",
            "mg/dL",
            "10^9/L",
            "U/L",
            "mg/dL",
            "%",
            "g/dL",
            "mEq/L",
            "10^9/L",
            "pg",
            "g/dL",
            "fL",
            "10^9/L",
            "mEq/L",
            "mg/dL",
            "10^9/L",
            "g/dL",
            "10^12/L",
            "mg/dL",
            "10^9/L",
            "g/dL",
            "U/L",
            "U/L",
            "U/L",
            "10^9/L",
            "mg/dL",
            "mg/dL",
            "mg/dL",
            "mg/dL",
            "U/L",
            "mEq/L",
            "mg/dL",
            "10^9/L",
            "U/L",
            "mg/dL",
            "%",
            "g/dL",
            "mEq/L",
            "10^9/L",
            "pg",
            "g/dL",
            "fL",
            "10^9/L",
            "mEq/L",
            "mg/dL",
            "10^9/L",
            "g/dL",
            "10^12/L",
            "mg/dL",
            "10^9/L",
            "g/dL",
            "U/L",
            "U/L",
            "U/L",
            "10^9/L",
            "mg/dL",
            "mg/dL",
            "mg/dL",
            "mg/dL",
            "U/L",
            "mEq/L",
            "mg/dL",
            "10^9/L",
            "U/L",
            "mg/dL",
            "%",
            "g/dL",
            "mEq/L",
            "10^9/L",
            "pg",
            "g/dL",
            "fL",
            "10^9/L",
            "mEq/L",
            "mg/dL",
            "10^9/L",
            "g/dL",
            "10^12/L",
            "mg/dL",
            "10^9/L",
            "g/dL",
            "U/L",
            "U/L",
            "U/L",
            "10^9/L",
            "mg/dL",
            "mg/dL",
            "mg/dL",
            "mg/dL",
            "U/L",
            "mEq/L",
            "",
            "mg/dL",
            "10^9/L",
            "U/L",
            "mg/dL",
            "%",
            "g/dL",
            "mEq/L",
            "",
            "10^9/L",
            "pg",
            "g/dL",
            "fL",
            "10^9/L",
            "mEq/L",
            "",
            "mg/dL",
            "10^9/L",
            "g/dL",
            "10^12/L",
            "",
            "mg/dL",
            "",
            "10^9/L",
            "g/dL",
            "U/L",
            "U/L",
            "U/L",
            "10^9/L",
            "mg/dL",
            "mg/dL",
            "mg/dL",
            "mg/dL",
            "U/L",
            "mEq/L",
            "mg/dL",
            "10^9/L",
            "U/L",
            "mg/dL",
            "%",
            "g/dL",
            "mEq/L",
            "10^9/L",
            "pg",
            "g/dL",
            "fL",
            "10^9/L",
            "mEq/L",
            "mg/dL",
            "10^9/L",
            "g/dL",
            "10^12/L",
            "mg/dL",
            "10^9/L",
            "g/dL",
            "U/L",
            "U/L",
            "U/L",
            "10^9/L",
            "mg/dL",
            "mg/dL",
            "mg/dL",
            "mg/dL",
            "U/L",
            "",
            "mg/dL",
            "10^9/L",
            "U/L",
            "mg/dL",
            "%",
            "g/dL",
            "",
            "10^9/L",
            "pg",
            "g/dL",
            "fL",
            "10^9/L",
            "",
            "mg/dL",
            "10^9/L",
            "g/dL",
            "10^12/L",
            "",
            "mg/dL",
            "",
            "10^9/L"
          ],
          "LBORNRLO": [
            "3.3",
            "35",
            "6",
            "9",
            "0",
            "0.2",
            "4",
            "8.4",
            "156",
            "21",
            "94",
            "",
            "0.7",
            "0",
            "5",
            "50",
            "34",
            "11.5",
            "3.4",
            "",
            "0.8",
            "26",
            "31",
            "80",
            "0.12",
            "135",
            "5",
            "2.2",
            "130",
            "6",
            "3.9",
            "1.006",
            ".32",
            "2.5",
            "",
            "200",
            "3.8",
            "3.3",
            "35",
            "6",
            "9",
            "0",
            "0.2",
            "4",
            "8.4",
            "156",
            "21",
            "94",
            "",
            "0.7",
            "0",
            "5",
            "50",
            "34",
            "11.5",
            "3.4",
            "",
            "0.8",
            "26",
            "31",
            "80",
            "0.12",
            "135",
            "5",
            "2.2",
            "130",
            "6",
            "3.9",
            "1.006",
            "2.5",
            "",
            "3.8",
            "3.3",
            "35",
            "6",
            "9",
            "0",
            "0.2",
            "4",
            "8.4",
            "156",
            "21",
            "94",
            "0.7",
            "0",
            "5",
            "50",
            "34",
            "11.5",
            "3.4",
            "0.8",
            "26",
            "31",
            "80",
            "0.12",
            "135",
            "2.2",
            "130",
            "6",
            "3.9",
            "2.5",
            "3.8",
            "3.3",
            "35",
            "6",
            "9",
            "0",
            "0.2",
            "4",
            "8.4",
            "156",
            "21",
            "94",
            "0.7",
            "0",
            "5",
            "50",
            "34",
            "11.5",
            "3.4",
            "0.8",
            "26",
            "31",
            "80",
            "0.12",
            "135",
            "2.2",
            "130",
            "6",
            "3.9",
            "2.5",
            "3.8",
            "3.3",
            "35",
            "6",
            "9",
            "0",
            "0.2",
            "4",
            "8.4",
            "156",
            "21",
            "94",
            "0.7",
            "0",
            "5",
            "50",
            "34",
            "11.5",
            "3.4",
            "0.8",
            "26",
            "31",
            "80",
            "0.12",
            "135",
            "2.2",
            "130",
            "6",
            "3.9",
            "2.5",
            "3.8",
            "3.3",
            "35",
            "6",
            "9",
            "0",
            "0.2",
            "4",
            "8.4",
            "156",
            "21",
            "94",
            "",
            "0.7",
            "0",
            "5",
            "50",
            "34",
            "11.5",
            "3.4",
            "",
            "0.8",
            "26",
            "31",
            "80",
            "0.12",
            "135",
            "5",
            "2.2",
            "130",
            "6",
            "3.9",
            "1.006",
            "2.5",
            "",
            "3.8",
            "3.3",
            "35",
            "6",
            "9",
            "0",
            "0.2",
            "4",
            "8.4",
            "156",
            "21",
            "94",
            "0.7",
            "0",
            "5",
            "50",
            "34",
            "11.5",
            "3.4",
            "0.8",
            "26",
            "31",
            "80",
            "0.12",
            "135",
            "2.2",
            "130",
            "6",
            "3.9",
            "2.5",
            "3.8",
            "3.3",
            "35",
            "6",
            "9",
            "0",
            "0.2",
            "4",
            "8.4",
            "156",
            "21",
            "94",
            "0.7",
            "0",
            "5",
            "50",
            "34",
            "11.5",
            "3.4",
            "0.8",
            "26",
            "31",
            "80",
            "0.12",
            "135",
            "2.2",
            "130",
            "6",
            "3.9",
            "2.5",
            "3.8",
            "3.3",
            "35",
            "6",
            "9",
            "0",
            "0.2",
            "4",
            "8.4",
            "156",
            "21",
            "94",
            "",
            "0.7",
            "0",
            "5",
            "50",
            "34",
            "11.5",
            "3.4",
            "",
            "0.8",
            "26",
            "31",
            "80",
            "0.12",
            "135",
            "5",
            "2.2",
            "130",
            "6",
            "3.9",
            "1.006",
            "2.5",
            "",
            "3.8",
            "3.5",
            "35",
            "6",
            "9",
            "0",
            "0.2",
            "4",
            "8.4",
            "156",
            "21",
            "94",
            "",
            "0.7",
            "0",
            "5",
            "50",
            "34",
            "11.5",
            "3.4",
            "",
            "0.8",
            "26",
            "31",
            "80",
            "0.12",
            "135",
            "5",
            "2.2",
            "130",
            "6",
            "3.9",
            "1.006",
            ".32",
            "2.5",
            "",
            "200",
            "3.8",
            "3.5",
            "35",
            "6",
            "9",
            "0",
            "0.2",
            "4",
            "8.4",
            "156",
            "21",
            "94",
            "",
            "0.7",
            "0",
            "5",
            "50",
            "34",
            "11.5",
            "3.4",
            "",
            "0.8",
            "26",
            "31",
            "80",
            "0.12",
            "135",
            "5",
            "2.2",
            "130",
            "6",
            "3.9",
            "1.006",
            "2.5",
            "",
            "3.8",
            "3.5",
            "35",
            "6",
            "9",
            "0",
            "0.2",
            "4",
            "8.4",
            "156",
            "21",
            "94",
            "0.7",
            "0",
            "5",
            "50",
            "34",
            "11.5",
            "3.4",
            "0.8",
            "26",
            "31",
            "80",
            "0.12",
            "135",
            "2.2",
            "130",
            "6",
            "3.9",
            "2.5",
            "3.8",
            "3.5",
            "35",
            "6",
            "9",
            "0",
            "0.2",
            "4",
            "8.4",
            "156",
            "21",
            "94",
            "0.7",
            "0",
            "5",
            "50",
            "34",
            "11.5",
            "3.4",
            "0.8",
            "26",
            "31",
            "80",
            "0.12",
            "135",
            "2.2",
            "130",
            "6",
            "3.9",
            "2.5",
            "3.8",
            "3.5",
            "35",
            "6",
            "9",
            "0",
            "0.2",
            "4",
            "8.4",
            "156",
            "21",
            "94",
            "0.7",
            "0",
            "5",
            "50",
            "34",
            "11.5",
            "3.4",
            "0.8",
            "26",
            "31",
            "80",
            "0.12",
            "135",
            "2.2",
            "130",
            "6",
            "3.9",
            "2.5",
            "3.8",
            "3.5",
            "35",
            "6",
            "9",
            "0",
            "0.2",
            "4",
            "8.4",
            "156",
            "21",
            "94",
            "",
            "0.7",
            "0",
            "5",
            "50",
            "34",
            "11.5",
            "3.4",
            "",
            "0.8",
            "26",
            "31",
            "80",
            "0.12",
            "135",
            "5",
            "2.2",
            "130",
            "6",
            "3.9",
            "1.006",
            "2.5",
            "",
            "3.8",
            "3.5",
            "35",
            "6",
            "9",
            "0",
            "0.2",
            "4",
            "8.4",
            "156",
            "21",
            "94",
            "0.7",
            "0",
            "5",
            "50",
            "34",
            "11.5",
            "3.4",
            "0.8",
            "26",
            "31",
            "80",
            "0.12",
            "135",
            "2.2",
            "130",
            "6",
            "3.9",
            "2.5",
            "3.8",
            "3.5",
            "35",
            "6",
            "9",
            "0",
            "0.2",
            "4",
            "8.4",
            "156",
            "21",
            "94",
            "0.7",
            "0",
            "5",
            "50",
            "34",
            "11.5",
            "3.4",
            "0.8",
            "26",
            "31",
            "80",
            "0.12",
            "135",
            "2.2",
            "130",
            "6",
            "3.9",
            "2.5",
            "3.8",
            "3.5",
            "35",
            "6",
            "9",
            "0",
            "0.2",
            "4",
            "8.4",
            "156",
            "21",
            "94",
            "",
            "0.7",
            "0",
            "5",
            "50",
            "34",
            "11.5",
            "3.4",
            "",
            "0.8",
            "26",
            "31",
            "80",
            "0.12",
            "135",
            "5",
            "2.2",
            "130",
            "6",
            "3.9",
            "1.006",
            "2.5",
            "",
            "3.8",
            "3.5",
            "35",
            "6",
            "9",
            "0",
            "0.2",
            "4",
            "8.4",
            "156",
            "21",
            "94",
            "0.7",
            "0",
            "5",
            "50",
            "34",
            "11.5",
            "3.4",
            "0.8",
            "26",
            "31",
            "80",
            "0.12",
            "135",
            "2.2",
            "130",
            "6",
            "3.9",
            "2.5",
            "3.8",
            "3.5",
            "35",
            "6",
            "11",
            "0",
            "0.2",
            "4",
            "8.4",
            "149",
            "22",
            "94",
            "",
            "0.8",
            "0",
            "10",
            "50",
            "37",
            "12.5",
            "3.4",
            "",
            "0.8",
            "26",
            "31",
            "80",
            "0.12",
            "135",
            "5",
            "2.2",
            "130",
            "6",
            "4",
            "1.006",
            ".32",
            "2.5",
            "",
            "200",
            "3.8",
            "0",
            "0",
            "37",
            "12.5",
            "0.8",
            "26",
            "31",
            "80",
            "0.12",
            "130",
            "4",
            ".32",
            "3.8",
            "3.5",
            "35",
            "6",
            "",
            "11",
            "0",
            "0.2",
            "4",
            "8.4",
            "149",
            "22",
            "94",
            "",
            "0.8",
            "0",
            "10",
            "50",
            "37",
            "12.5",
            "3.4",
            "",
            "0.8",
            "26",
            "31",
            "80",
            "0.12",
            "135",
            "5",
            "2.2",
            "130",
            "",
            "6",
            "4",
            "1.006",
            "2.5",
            "",
            "3.8",
            "3.5",
            "35",
            "6",
            "11",
            "0",
            "0.2",
            "4",
            "8.4",
            "149",
            "22",
            "94",
            "0.8",
            "0",
            "10",
            "50",
            "37",
            "12.5",
            "3.4",
            "0.8",
            "26",
            "31",
            "80",
            "0.12",
            "135",
            "2.2",
            "130",
            "6",
            "4",
            "2.5",
            "3.8",
            "3.5",
            "35",
            "6",
            "11",
            "0",
            "0.2",
            "4",
            "8.4",
            "149",
            "22",
            "94",
            "0.8",
            "0",
            "10",
            "50",
            "37",
            "12.5",
            "3.4",
            "0.8",
            "26",
            "31",
            "80",
            "0.12",
            "135",
            "2.2",
            "130",
            "6",
            "4",
            "2.5",
            "3.8",
            "3.5",
            "35",
            "6",
            "11",
            "0",
            "0.2",
            "4",
            "8.4",
            "149",
            "22",
            "94",
            "0.8",
            "0",
            "10",
            "50",
            "37",
            "12.5",
            "3.4",
            "0.8",
            "26",
            "31",
            "80",
            "0.12",
            "135",
            "2.2",
            "130",
            "6",
            "4",
            "2.5",
            "3.8",
            "3.5",
            "35",
            "6",
            "11",
            "0",
            "0.2",
            "4",
            "8.4",
            "149",
            "22",
            "94",
            "",
            "0.8",
            "0",
            "10",
            "50",
            "37",
            "12.5",
            "3.4",
            "",
            "0.8",
            "26",
            "31",
            "80",
            "0.12",
            "135",
            "5",
            "2.2",
            "130",
            "6",
            "4",
            "1.006",
            "2.5",
            "",
            "3.8",
            "3.5",
            "35",
            "6",
            "11",
            "0",
            "0.2",
            "4",
            "8.4",
            "149",
            "22",
            "94",
            "0.8",
            "0",
            "10",
            "50",
            "37",
            "12.5",
            "3.4",
            "0.8",
            "26",
            "31",
            "80",
            "0.12",
            "135",
            "2.2",
            "130",
            "6",
            "4",
            "2.5",
            "3.8",
            "3.5",
            "35",
            "6",
            "11",
            "0",
            "0.2",
            "4",
            "8.4",
            "149",
            "22",
            "",
            "0.8",
            "0",
            "10",
            "50",
            "37",
            "12.5",
            "",
            "0.8",
            "26",
            "31",
            "80",
            "0.12",
            "5",
            "2.2",
            "130",
            "6",
            "4",
            "1.006",
            "2.5",
            "",
            "3.8"
