STUDYID,DOMAIN,USUBJID,EGSEQ,EGTESTCD,EGTEST,EGORRES,EGORRESU,EGSTRESC,EGSTRESN,EGSTRESU,EGSTAT
1234,EG,123101,1,EGHRMN,ECG Mean Heart Rate,62,beats/min,TEST,,beats/min,
1234,EG,123101,2,PRAG,"PR Interval, Aggregate",0.15,sec,2-5,,msec,
1234,EG,123102,1,INTP,Interpretation,QT MEAN POSSIBLY ABNORMAL ,,+8,,,
1234,EG,123102,2,PRAG,"PR Interval, Aggregate",0.149876,sec,positive,,msec,
1234,EG,123102,2,PRAG,"PR Interval, Aggregate",1.149876,sec,5,5,msec,
