{
    "rule": {
        "Authorities": [
            {
                "Organization": "CDISC",
                "Standards": [
                    {
                        "Name": "SDTMIG",
                        "References": [
                            {
                                "Citations": [
                                    {
                                        "Document": "IG v3.4",
                                        "Item": "Assumption 4a|Assumption 4b",
                                        "Section": "6.1.3.2",
                                        "Cited_Guidance": "Assumption 4a[For example, if 0 tablets are taken within a timeframe or 0 mL infused at a visit, then ECOCCUR = 'N' is the standard representation of the collected doses not taken, not given, or missed. Dose amount variables (e.g., ECDOSE, ECDOSTXT) must not be set to zero (0) as an alternative method for indicating doses not taken, not given, or missed.]|Assumption 4b[Qualifiers that indicate dose amount (e.g., ECDOSE, ECDOSTXT) may be populated with positive (non-zero) values in cases where the sponsor feels it is necessary and/or appropriate to represent specific dose amounts not taken, not given, or missed.]"
                                    }
                                ],
                                "Origin": "SDTM and SDTMIG Conformance Rules",
                                "Version": "2.0",
                                "Rule_Identifier": {
                                    "Id": "CG0462",
                                    "Version": "2"
                                }
                            }
                        ],
                        "Version": "3.4"
                    },
                    {
                        "Name": "SDTMIG",
                        "References": [
                            {
                                "Citations": [
                                    {
                                        "Document": "IG v3.3",
                                        "Item": "Assumption 4a|Assumption 4b",
                                        "Section": "6.1.3",
                                        "Cited_Guidance": "Assumption 4a[For example, if 0 tablets are taken within a timeframe or 0 mL infused at a visit, then ECOCCUR = 'N' is the standard representation of the collected doses not taken, not given, or missed. Dose amount variables (e.g., ECDOSE, ECDOSTXT) must not be set to zero (0) as an alternative method for indicating doses not taken, not given, or missed.]|Assumption 4b[Qualifiers that indicate dose amount (e.g., ECDOSE, ECDOSTXT) may be populated with positive (non-zero) values in cases where the sponsor feels it is necessary and/or appropriate to represent specific dose amounts not taken, not given, or missed.]"
                                    }
                                ],
                                "Origin": "SDTM and SDTMIG Conformance Rules",
                                "Version": "2.0",
                                "Rule_Identifier": {
                                    "Id": "CG0462",
                                    "Version": "2"
                                }
                            }
                        ],
                        "Version": "3.3"
                    },
                    {
                        "Name": "SDTMIG",
                        "References": [
                            {
                                "Citations": [
                                    {
                                        "Document": "IG v3.2",
                                        "Item": "Assumption 4a|Assumption 4b",
                                        "Section": "6.1",
                                        "Cited_Guidance": "Assumption 4a[For example, if 0 tablets are taken within a timeframe or 0 mL infused at a visit, then ECOCCUR = 'N' is the standard representation of the collected doses not taken, not given, or missed. Dose amount variables (e.g., ECDOSE, ECDOSTXT) must not be set to zero (0) as an alternative method for indicating doses not taken, not given, or missed.]|Assumption 4b[Qualifiers that indicate dose amount (e.g., ECDOSE, ECDOSTXT) may be populated with positive (non-zero) values in cases where the sponsor feels it is necessary and/or appropriate to represent specific dose amounts not taken, not given, or missed.]"
                                    }
                                ],
                                "Origin": "SDTM and SDTMIG Conformance Rules",
                                "Version": "2.0",
                                "Rule_Identifier": {
                                    "Id": "CG0462",
                                    "Version": "2"
                                }
                            }
                        ],
                        "Version": "3.2"
                    },
                    {
                        "Name": "TIG",
                        "References": [
                            {
                                "Citations": [
                                    {
                                        "Document": "TIG 1.0",
                                        "Item": "Assumption 4a|4b",
                                        "Section": "2.8.10.11",
                                        "Cited_Guidance": "Assumption 4a[For example, if 0 tablets are taken within a timeframe or 0 mL infused at a visit, then ECOCCUR = 'N' is the standard representation of the collected doses not taken, not given, or missed. Dose amount variables (e.g., ECDOSE, ECDOSTXT) must not be set to zero (0) as an alternative method for indicating doses not taken, not given, or missed.]|Assumption 4b[Qualifiers that indicate dose amount (e.g., ECDOSE, ECDOSTXT) may be populated with positive (non-zero) values in cases where the sponsor feels it is necessary and/or appropriate to represent specific dose amounts not taken, not given, or missed.]"
                                    }
                                ],
                                "Origin": "TIG Conformance Rules",
                                "Version": "1.0",
                                "Rule_Identifier": {
                                    "Id": "TIG0592",
                                    "Version": "1"
                                }
                            }
                        ],
                        "Substandard": "SDTM",
                        "Version": "1.0"
                    }
                ]
            }
        ],
        "Check": {
            "any": [
                {
                    "all": [
                        {
                            "name": "ECDOSE",
                            "operator": "empty"
                        },
                        {
                            "name": "ECOCCUR",
                            "operator": "not_equal_to",
                            "value": "N",
                            "value_is_literal": true
                        },
                        {
                            "name": "ECSTAT",
                            "operator": "empty"
                        },
                        {
                            "name": "ECDOSTXT",
                            "operator": "empty"
                        }
                    ]
                },
                {
                    "all": [
                        {
                            "name": "ECDOSE",
                            "operator": "empty"
                        },
                        {
                            "name": "ECOCCUR",
                            "operator": "not_equal_to",
                            "value": "N",
                            "value_is_literal": true
                        },
                        {
                            "name": "ECSTAT",
                            "operator": "not_exists"
                        },
                        {
                            "name": "ECDOSTXT",
                            "operator": "empty"
                        }
                    ]
                },
                {
                    "all": [
                        {
                            "name": "ECDOSE",
                            "operator": "empty"
                        },
                        {
                            "name": "ECOCCUR",
                            "operator": "not_exists"
                        },
                        {
                            "name": "ECSTAT",
                            "operator": "empty"
                        },
                        {
                            "name": "ECDOSTXT",
                            "operator": "empty"
                        }
                    ]
                },
                {
                    "all": [
                        {
                            "name": "ECDOSE",
                            "operator": "empty"
                        },
                        {
                            "name": "ECOCCUR",
                            "operator": "not_exists"
                        },
                        {
                            "name": "ECSTAT",
                            "operator": "not_exists"
                        },
                        {
                            "name": "ECDOSTXT",
                            "operator": "empty"
                        }
                    ]
                }
            ]
        },
        "Core": {
            "Id": "CORE-000217",
            "Status": "Published",
            "Version": "1"
        },
        "Description": "Raise an error when ECDOSE is empty, ECOCCUR is not equal to 'N', ECSTAT is empty and ECDOSTXT is empty",
        "Executability": "Fully Executable",
        "Outcome": {
            "Message": "ECDOSE is empty, ECOCCUR is not equal to 'N' and ECSTAT is empty, but ECDOSTXT is also empty.",
            "Output_Variables": [
                "ECDOSE",
                "ECOCCUR",
                "ECSTAT",
                "ECDOSTXT"
            ]
        },
        "Scope": {
            "Classes": {
                "Include": [
                    "INTERVENTIONS"
                ]
            },
            "Domains": {
                "Include": [
                    "EC"
                ]
            },
            "Use_Case": "INDH"
        },
        "Sensitivity": "Record",
        "Rule_Type": "Record Data"
    },
    "datasets": [
        {
            "filename": "ec.xpt",
            "label": "Exposure as Collected",
            "domain": "EC",
            "variables": [
                {
                    "name": "STUDYID",
                    "label": "Study Identifier",
                    "type": "Char",
                    "length": 50
                },
                {
                    "name": "DOMAIN",
                    "label": "Domain Abbreviation",
                    "type": "Char",
                    "length": 50
                },
                {
                    "name": "USUBJID",
                    "label": "Unique Subject Identifier",
                    "type": "Char",
                    "length": 50
                },
                {
                    "name": "SPDEVID",
                    "label": "Sponsor Device Identifier",
                    "type": "Char",
                    "length": 200
                },
                {
                    "name": "ECSEQ",
                    "label": "Sequence Number",
                    "type": "Num",
                    "length": 8
                },
                {
                    "name": "ECTRT",
                    "label": "Name of Treatment",
                    "type": "Char",
                    "length": 50
                },
                {
                    "name": "ECPRESP",
                    "label": "Pre-Specified",
                    "type": "Char",
                    "length": 50
                },
                {
                    "name": "ECOCCUR",
                    "label": "Occurrence",
                    "type": "Char",
                    "length": 50
                },
                {
                    "name": "ECDOSE",
                    "label": "Dose",
                    "type": "Num",
                    "length": 8
                },
                {
                    "name": "ECDOSTXT",
                    "label": "Dose Description",
                    "type": "Char",
                    "length": 50
                },
                {
                    "name": "ECDOSU",
                    "label": "Dose Units",
                    "type": "Char",
                    "length": 50
                },
                {
                    "name": "ECDOSFRM",
                    "label": "Dose Form",
                    "type": "Char",
                    "length": 50
                },
                {
                    "name": "ECDOSFRQ",
                    "label": "Dosing Frequency per Interval",
                    "type": "Char",
                    "length": 50
                },
                {
                    "name": "ECROUTE",
                    "label": "Route of Administration",
                    "type": "Char",
                    "length": 50
                },
                {
                    "name": "ECLOT",
                    "label": "Lot Number",
                    "type": "Char",
                    "length": 50
                },
                {
                    "name": "ECPSTRG",
                    "label": "Pharmaceutical Strength",
                    "type": "Num",
                    "length": 8
                },
                {
                    "name": "ECPSTRGU",
                    "label": "Pharmaceutical Strength Units",
                    "type": "Char",
                    "length": 50
                },
                {
                    "name": "ECSTAT",
                    "label": "Completion Status",
                    "type": "Char",
                    "length": 50
                },
                {
                    "name": "EPOCH",
                    "label": "Epoch",
                    "type": "Char",
                    "length": 50
                },
                {
                    "name": "ECSTDTC",
                    "label": "Start Date/Time of Treatment",
                    "type": "Char",
                    "length": 50
                },
                {
                    "name": "ECENDTC",
                    "label": "End Date/Time of Treatment",
                    "type": "Char",
                    "length": 50
                },
                {
                    "name": "ECSTDY",
                    "label": "Study Day of Start of Treatment",
                    "type": "Num",
                    "length": 8
                },
                {
                    "name": "ECENDY",
                    "label": "Study Day of End of Treatment",
                    "type": "Num",
                    "length": 8
                }
            ],
            "records": {
                "STUDYID": [
                    "CDISCPILOT01",
                    "CDISCPILOT01",
                    "CDISCPILOT01",
                    "CDISCPILOT01",
                    "CDISCPILOT01",
                    "CDISCPILOT01"
                ],
                "DOMAIN": [
                    "EC",
                    "EC",
                    "EC",
                    "EC",
                    "EC",
                    "EC"
                ],
                "USUBJID": [
                    "CDISC001",
                    "CDISC002",
                    "CDISC003",
                    "CDISC004",
                    "CDISC005",
                    "CDISC006"
                ],
                "SPDEVID": [
                    "DEV0001",
                    "DEV0002",
                    "DEV0002",
                    "DEV0002",
                    "DEV0002",
                    "DEV0002"
                ],
                "ECSEQ": [
                    1,
                    2,
                    2,
                    2,
                    2,
                    2
                ],
                "ECTRT": [
                    "ZANOMALINE",
                    "ZANOMALINE",
                    "ZANOMALINE",
                    "ZANOMALINE",
                    "ZANOMALINE",
                    "ZANOMALINE"
                ],
                "ECPRESP": [
                    "Y",
                    "Y",
                    "Y",
                    "Y",
                    "Y",
                    "Y"
                ],
                "ECOCCUR": [
                    "Y",
                    "",
                    "N",
                    "Y",
                    "",
                    ""
                ],
                "ECDOSE": [
                    null,
                    null,
                    null,
                    null,
                    5,
                    null
                ],
                "ECDOSTXT": [
                    "MANY",
                    "A LOT",
                    "",
                    "",
                    "",
                    ""
                ],
                "ECDOSU": [
                    "",
                    "",
                    "",
                    "",
                    "",
                    ""
                ],
                "ECDOSFRM": [
                    "INJECTION",
                    "INJECTION",
                    "INJECTION",
                    "INJECTION",
                    "INJECTION",
                    "INJECTION"
                ],
                "ECDOSFRQ": [
                    "QD",
                    "QD",
                    "QD",
                    "QD",
                    "QD",
                    "QD"
                ],
                "ECROUTE": [
                    "SUBCUTANEOUS",
                    "SUBCUTANEOUS",
                    "SUBCUTANEOUS",
                    "SUBCUTANEOUS",
                    "SUBCUTANEOUS",
                    "SUBCUTANEOUS"
                ],
                "ECLOT": [
                    "SDS580-359",
                    "SDS580-360",
                    "SDS580-360",
                    "SDS580-360",
                    "SDS580-360",
                    "SDS580-360"
                ],
                "ECPSTRG": [
                    10.8,
                    11.8,
                    11.8,
                    11.8,
                    11.8,
                    11.8
                ],
                "ECPSTRGU": [
                    "g/L",
                    "g/L",
                    "g/L",
                    "g/L",
                    "g/L",
                    "g/L"
                ],
                "ECSTAT": [
                    "",
                    "",
                    "",
                    "NOT DONE",
                    "",
                    "NOT DONE"
                ],
                "EPOCH": [
                    "TREATMENT",
                    "TREATMENT",
                    "TREATMENT",
                    "TREATMENT",
                    "TREATMENT",
                    "TREATMENT"
                ],
                "ECSTDTC": [
                    "2012-11-30",
                    "2012-11-30",
                    "2012-11-30",
                    "2012-11-30",
                    "2012-11-30",
                    "2012-11-30"
                ],
                "ECENDTC": [
                    "2012-11-30",
                    "2012-11-30",
                    "2012-11-30",
                    "2012-11-30",
                    "2012-11-30",
                    "2012-11-30"
                ],
                "ECSTDY": [
                    1,
                    1,
                    1,
                    1,
                    1,
                    1
                ],
                "ECENDY": [
                    1,
                    1,
                    1,
                    1,
                    1,
                    1
                ]
            }
        }
    ],
    "codelists": []
}