Authorities:
  - Organization: CDISC
    Standards:
      - Name: SENDIG
        References:
          - Citations:
              - Cited Guidance:
                  The Permissible Study Day variables (--DY, --STDY, and --ENDY) describe the
                  relative day of the observation starting with the reference date as Day 1.
                Document: IG v3.0
                Section: 4.4.4
            Origin: SEND Conformance Rules
            Rule Identifier:
              Id: SEND71.1
              Version: "1"
            Version: "5.0"
        Version: "3.0"
      - Name: SENDIG
        References:
          - Citations:
              - Cited Guidance:
                  The Permissible Study Day variables (--DY, --STDY, and --ENDY) describe the
                  relative day of the observation starting with the reference date as Day 1.
                Document: IG v3.1
                Section: 4.4.4
            Origin: SEND Conformance Rules
            Rule Identifier:
              Id: SEND71.1
              Version: "1"
            Version: "5.0"
        Version: "3.1"
      - Name: SENDIG
        References:
          - Citations:
              - Cited Guidance:
                  The Permissible Study Day variables (--DY, --STDY, and --ENDY) describe the
                  relative day of the observation starting with the reference date as Day 1.
                Document: IG v3.1.1
                Section: 4.4.4
            Origin: SEND Conformance Rules
            Rule Identifier:
              Id: SEND71.1
              Version: "1"
            Version: "5.0"
        Version: 3.1.1
      - Name: SENDIG-DART
        References:
          - Citations:
              - Cited Guidance:
                  The Permissible Study Day variables (--DY, --STDY, and --ENDY) describe the
                  relative day of the observation starting with the reference date as Day 1.
                Document: IG v3.1
                Section: 4.4.4
            Origin: SEND Conformance Rules
            Rule Identifier:
              Id: SEND71.1
              Version: "1"
            Version: "5.0"
        Version: "1.1"
      - Name: SENDIG-DART
        References:
          - Citations:
              - Cited Guidance:
                  The Permissible Study Day variables (--DY, --STDY, and --ENDY) describe the
                  relative day of the observation starting with the reference date as Day 1.
                Document: IG v3.1.1
                Section: 4.4.4
            Origin: SEND Conformance Rules
            Rule Identifier:
              Id: SEND71.1
              Version: "1"
            Version: "5.0"
        Version: "1.2"
      - Name: SENDIG-GENETOX
        References:
          - Citations:
              - Cited Guidance:
                  The Permissible Study Day variables (--DY, --STDY, and --ENDY) describe the
                  relative day of the observation starting with the reference date as Day 1.
                Document: IG v3.1.1
                Section: 4.4.4
            Origin: SEND Conformance Rules
            Rule Identifier:
              Id: SEND71.1
              Version: "1"
            Version: "5.0"
        Version: "1.0"
Check:
  all:
    - name: --DY
      operator: non_empty
    - name: --DTC
      operator: is_complete_date
    - name: RFSTDTC
      operator: is_complete_date
    - name: --DY
      operator: not_equal_to
      value: $val_dy
Core:
  Id: CDISC.SENDIG.71
  Status: Draft
  Version: "1"
Description: --DY = (date portion of --DTC) - (date portion of RFSTDTC) + 1 if --DTC is on or after
  RFSTDTC; --DY = (date portion of --DTC) - (date portion of RFSTDTC) if --DTC precedes RFSTDTC
Executability: Fully Executable
Match Datasets:
  - Keys:
      - USUBJID
    Name: DM
Operations:
  - id: $val_dy
    name: --DTC
    operator: dy
Outcome:
  Message: --DY was calculated incorrectly.
  Output Variables:
    - $val_dy
    - --DY
    - --DTC
    - RFSTDTC
Rule Type: Record Data
Scope:
  Classes:
    Include:
      - ALL
  Domains:
    Include:
      - ALL
Sensitivity: Record
