STUDYID,DOMAIN,USUBJID,MSSEQ,MSTESTCD,MSTEST,MSORRES,MSORRESU,MSSTRESC,MSSTRESU,MSRESCAT
1234,MS,123101,1,MIC,Minimum Inhibitory Concentration,0.25,ug/dL,0.25,ug/dL,JDKSAJJDSAKF
1234,MS,123101,1,MIC,Minimum Inhibitory Concentration,0.25,ug/dL,0.25,ug/dL,JDKSAJJDSAKF
