STUDYID,DOMAIN,USUBJID,MLSEQ,MLTRT,MLCAT,MLPRESP,MLOCCUR,MLDOSE,MLDOSTXT,MLDOSU,MLDTC,MLSTDTC,MLENDTC,RELMIDS,MIDS,MIDSDTC
XYZ,ML,XYZ-001-001,1,SNACK,HYPOGLYCEMIA EVALUATION,Y,Y,,,,,2015-06-03T14:15,,LAST MEAL PRIOR TO,HYPO1,2015-06-03T19
XYZ,ML,XYZ-001-001,2,NUTRITIONAL DRINK,HYPOGLYCEMIA EVALUATION,Y,Y,8,,oz,,2015-09-03T08:30,,LAST MEAL PRIOR TO,HYPO2,2015-09-03T17:00
