STUDYID,DOMAIN,USUBJID,SUSEQ,SUTRT,SUCAT,SUDOSE,SUDOSTXT,SUDOSU,SUDOSFRQ,SUDOSTOT,SUSTDTC,SUENDTC,SUSTTPT,SUSTRTPT,SUENTPT,SUENRTPT
1234,SU,1234005,1,CIGARETTES,TOBACCO,2,,PACK,QD,,,,2006-01-01 00:00:00,BEFORE,2006-01-01 00:00:00,ONGOING
1234,SU,1234005,2,COFFEE,CAFFEINE,,,CUP,QD,3,2006-01-01 00:00:00,2006-01-01 00:00:00,,,,
