{3 items
"datasets":[2 items
0:{5 items
"filename":"fa.xpt"
"label":"Findings About"
"domain":"FA"
"variables":[16 items
0:{4 items
"name":"STUDYID"
"label":"Study Identifier"
"type":"Char"
"length":12
}
1:{4 items
"name":"DOMAIN"
"label":"Domain Abbreviation"
"type":"Char"
"length":2
}
2:{4 items
"name":"USUBJID"
"label":"Unique Subject Identifier"
"type":"Char"
"length":8
}
3:{4 items
"name":"FASEQ"
"label":"Sequence Number"
"type":"Num"
"length":8
}
4:{4 items
"name":"FALNKGRP"
"label":"Link Group ID"
"type":"Char"
"length":200
}
5:{4 items
"name":"FATESTCD"
"label":"Findings About Test Short Name"
"type":"Char"
"length":5
}
6:{4 items
"name":"FATEST"
"label":"Findings About Test Name"
"type":"Char"
"length":20
}
7:{4 items
"name":"FAOBJ"
"label":"Object of the Observation"
"type":"Char"
"length":10
}
8:{4 items
"name":"FACAT"
"label":"Category for Findings About"
"type":"Char"
"length":23
}
9:{4 items
"name":"FAORRES"
"label":"Result or Finding in Original Units"
"type":"Char"
"length":8
}
10:{4 items
"name":"FASTRESC"
"label":"Character Result/Finding in Std Format"
"type":"Char"
"length":8
}
11:{4 items
"name":"FALOC"
"label":"Location of the Finding About"
"type":"Char"
"length":3
}
12:{4 items
"name":"VISITNUM"
"label":"Visit Number"
"type":"Num"
"length":8
}
13:{4 items
"name":"EPOCH"
"label":"Epoch"
"type":"Char"
"length":9
}
14:{4 items
"name":"FADTC"
"label":"Date/Time of Collection"
"type":"Char"
"length":10
}
15:{4 items
"name":"FADY"
"label":"Study Day of Collection"
"type":"Num"
"length":8
}
]
"records":{16 items
"STUDYID":[5 items
0:"CDISCPILOT01"
1:"CDISCPILOT01"
2:"CDISCPILOT01"
3:"CDISCPILOT01"
4:"CDISCPILOT01"
]
"DOMAIN":[5 items
0:"FA"
1:"FA"
2:"FA"
3:"FA"
4:"FA"
]
"USUBJID":[5 items
0:"CDISC001"
1:"CDISC001"
2:"CDISC001"
3:"CDISC001"
4:"CDISC001"
]
"FASEQ":[5 items
0:1
1:2
2:3
3:4
4:5
]
"FALNKGRP":[5 items
0:"1"
1:"1"
2:"1"
3:"1"
4:"1"
]
"FATESTCD":[5 items
0:"OCCUR"
1:"SEV"
2:"OCCUR"
3:"OCCUR"
4:"OCCUR"
]
"FATEST":[5 items
0:"Occurrence Indicator"
1:"Severity/Intensity"
2:"Occurrence Indicator"
3:"Occurrence Indicator"
4:"Occurrence Indicator"
]
"FAOBJ":[5 items
0:"ERYTHEMA"
1:"ERYTHEMA"
2:"PAIN"
3:"INDURATION"
4:"PRURITIS"
]
"FACAT":[5 items
0:"INJECTION SITE REACTION"
1:"INJECTION SITE REACTION"
2:"INJECTION SITE REACTION"
3:"INJECTION SITE REACTION"
4:"INJECTION SITE REACTION"
]
"FAORRES":[5 items
0:"Y"
1:"MODERATE"
2:"N"
3:"N"
4:"N"
]
"FASTRESC":[5 items
0:"Y"
1:"MODERATE"
2:"N"
3:"N"
4:"N"
]
"FALOC":[5 items
0:"ARM"
1:"ARM"
2:"ARM"
3:"ARM"
4:"ARM"
]
"VISITNUM":[5 items
0:NULL
1:NULL
2:NULL
3:NULL
4:NULL
]
"EPOCH":[5 items
0:"TREATMENT"
1:"TREATMENT"
2:"TREATMENT"
3:"TREATMENT"
4:"TREATMENT"
]
"FADTC":[5 items
0:"2012-12-02"
1:"2012-12-02"
2:"2012-12-02"
3:"2012-12-02"
4:"2012-12-02"
]
"FADY":[5 items
0:3
1:3
2:3
3:3
4:3
]
}
}
1:{5 items
"filename":"apmh.xpt"
"label":"Associated Persons Medical History"
"domain":"APMHE"
"variables":[9 items
0:{4 items
"name":"STUDYID"
"label":"Study Identifier"
"type":"Char"
"length":50
}
1:{4 items
"name":"DOMAIN"
"label":"Domain Abbreviation"
"type":"Char"
"length":50
}
2:{4 items
"name":"APID"
"label":"Associated Persons Identifier"
"type":"Char"
"length":50
}
3:{4 items
"name":"MHSEQ"
"label":"Sequence Number"
"type":"Num"
"length":8
}
4:{4 items
"name":"RSUBJID"
"label":"Related Subject or Pool Identifier"
"type":"Char"
"length":50
}
5:{4 items
"name":"SREL"
"label":"Subject, Device, or Study Relationship"
"type":"Char"
"length":50
}
6:{4 items
"name":"MHTERM"
"label":"Reported Term for the Medical History"
"type":"Char"
"length":50
}
7:{4 items
"name":"MHPRESP"
"label":"Medical History Event Pre-Specified"
"type":"Char"
"length":50
}
8:{4 items
"name":"MHOCCUR"
"label":"Medical History Occurrence"
"type":"Char"
"length":50
}
]
"records":{9 items
"STUDYID":[4 items
0:"ABC123"
1:"ABC123"
2:"ABC123"
3:"ABC123"
]
"DOMAIN":[4 items
0:"APMHE"
1:"APMHE"
2:"APMHE"
3:"APMHE"
]
"APID":[4 items
0:"2011-02-02-N120"
1:"2011-02-02-N121"
2:"2011-02-02-N122"
3:"2011-02-02-N123"
]
"MHSEQ":[4 items
0:1
1:1
2:1
3:1
]
"RSUBJID":[4 items
0:"ABC123-01"
1:"ABC123-01"
2:"ABC123-01"
3:"ABC123-01"
]
"SREL":[4 items
0:"MOTHER, BIOLOGICAL"
1:"FATHER, BIOLOGICAL"
2:"SIBLING, FULL"
3:"COUSIN, BIOLOGICAL"
]
"MHTERM":[4 items
0:"POMPE DISEASE"
1:"POMPE DISEASE"
2:"POMPE DISEASE"
3:"POMPE DISEASE"
]
"MHPRESP":[4 items
0:"Y"
1:"Y"
2:"Y"
3:"Y"
]
"MHOCCUR":[4 items
0:"N"
1:"Y"
2:"N"
3:"Y"
]
}
}
]
"standard":{2 items
"product":"sdtmig"
"version":"3-3"
}
"codelists":[]0 items
}