STUDYID,DOMAIN,USUBJID,AESEQ,AETERM,AESEV,AESER,AEACN,AEREL,AEOUT,AESCAN,AESCONG,AESDISAB,AESDTH,AESHOSP,AESLIFE,AESOD,EPOCH,AESTDTC,AEENDTC,AESTDY,AEENDY,AEENRTPT,AEENTPT
CDISCPILOT01,AE,CDISC001,1,INJECTION SITE REACTION,MODERATE,N,DRUG WITHDRAWN,RELATED,NOT RECOVERED/NOT RESOLVED,N,Y,N,N,N,N,N,TREATMENT,2012-12-02,,3,,ONGOING,2013-05-20
CDISCPILOT01,AE,CDISC003,1,HYPERHIDROSIS,MILD,Y,DOSE NOT CHANGED,POSSIBLY RELATED,NOT RECOVERED/NOT RESOLVED,N,,N,N,N,N,N,TREATMENT,2013-08-30,,2,,ONGOING,2013-02-13
CDISCPILOT01,AE,CDISC008,1,COMPLETED SUICIDE,SEVERE,Y,DRUG WITHDRAWN,NOT RELATED,FATAL,N,N,N,Y,N,N,N,TREATMENT,2014-10-31,2014-10-31,174,174,,
