STUDYID,DOMAIN,USUBJID,MBSEQ,MBTESTCD,MBTEST,MBORRES,MBORRESU,MBSTRESC,MBSTRESN,MBSTRESU,MBRESCAT,MBLOINC,MBSPEC,MBMETHOD,MBBLFL,EPOCH,VISITNUM,VISIT,MBDTC,MBDY
ABC,MB,ABC-001-002,1,ORGANISM,Organism,no growth observed,,NOT NO GROWTH,,,RESULT CATEGORY,,,NOT GRAM STAIN,,,,,,
ABC,MB,ABC-001-002,2,ORGANISM,Organism,no growth observed by other method,,NO GROWTH,,,,,,NOT GRAM STAIN,,,,,,
