STUDYID,DOMAIN,USUBJID,EGSEQ,EGTESTCD,EGTEST,EGORRES,EGORRESU,EGSTRESC,EGSTRESU,EGSTAT
1234,EG,123101,1,EGHRMN,ECG Mean Heart Rate,62,beats/min,62,beats/min,
1234,EG,123101,2,PRAG,"PR Interval, Aggregate",0.15,sec,150,msec,
1234,EG,123102,1,PRAG,"PR Interval, Aggregate",,sec,,msec,NOT DONE
