STUDYID,DOMAIN,USUBJID,POOLID,PCSEQ,PCTESTCD,PCTEST,PCORRES,PCORRESU,PCSTRESC,PCSTRESN,PCSTRESU,PCSPEC,PCDTC,PCDY,PCNOMDY,PCTPTREF,PCELTM
CDISC-TEST,PC,CDISC-TEST-001,,1,DRGA_MET ,DRUG a METABOLITE ,<0.1 ,ng/mL,<0.1 ,,ng/mL,PLASMA,2001-02-01T07:45 ,1,1,Day 1 dose,PT0H
CDISC-TEST,PC,CDISC-TEST-001,,2,DRGA_MET ,DRUG a METABOLITE ,<0.1 ,ng/mL,<0.1 ,,ng/mL,PLASMA,2001-02-01T07:46,1,1,Day 1 dose,PT0H
CDISC-TEST,PC,,POOL1,1,DRGA_MET ,DRUG a METABOLITE ,3.41,ng/mL,3.41,3.41,ng/mL,PLASMA,2001-02-01T09:21,1,1,Day 1 dose,PT0H
CDISC-TEST,PC,,POOL1,2,DRGA_MET ,DRUG a METABOLITE ,3.44,ng/mL,3.44,3.44,ng/mL,PLASMA,2001-02-01T09:22,1,1,Day 1 dose,PT0H
CDISC-TEST,PC,CHICKEN1,,1,DRGA_MET ,DRUG a METABOLITE ,<0.1 ,ng/mL,<0.1 ,,ng/mL,PLASMA,2001-02-01T07:45 ,1,2,,PT0H
CDISC-TEST,PC,CHICKEN1,,2,DRGA_MET ,DRUG a METABOLITE ,<0.1 ,ng/mL,<0.1 ,,ng/mL,PLASMA,2001-02-01T07:45 ,1,2,Day 1 dose,
CDISC-TEST,PC,NOT_IN_PROFILE_RAT,,,OTHER_PROFILE,Other,<0.1 ,ng/mL,<0.1 ,,ng/mL,PLASMA,2001-02-01T07:45 ,1,,,-P1D
