{
    "rule": {
        "Authorities": [
            {
                "Organization": "CDISC",
                "Standards": [
                    {
                        "Name": "SDTMIG",
                        "References": [
                            {
                                "Citations": [
                                    {
                                        "Document": "Model v2.0",
                                        "Item": "RSUBJID",
                                        "Section": "Associated Persons",
                                        "Cited_Guidance": "Identifier for a related study subject or pool of study subjects. The subject(s) may be human or animal. RSUBJID will be populated with the USUBJID of the related subject or the POOLID of the related pool. RSUBJID will be null for data about associated persons who are related to the study but not to any of the study subjects."
                                    }
                                ],
                                "Origin": "SDTM and SDTMIG Conformance Rules",
                                "Version": "2.0",
                                "Rule_Identifier": {
                                    "Id": "CG0367",
                                    "Version": "1"
                                }
                            }
                        ],
                        "Version": "3.4"
                    },
                    {
                        "Name": "SDTMIG",
                        "References": [
                            {
                                "Citations": [
                                    {
                                        "Document": "Model v1.4",
                                        "Section": "5.1.1",
                                        "Cited_Guidance": "Identifier for a related study subject or pool of study subjects. The subject(s) may be human or animal. RSUBJID will be populated with the USUBJID of the related subject or the POOLID of the related pool. RSUBJID will be null for data about associated persons who are related to the study but not to any of the study subjects."
                                    }
                                ],
                                "Origin": "SDTM and SDTMIG Conformance Rules",
                                "Version": "2.0",
                                "Rule_Identifier": {
                                    "Id": "CG0367",
                                    "Version": "1"
                                }
                            }
                        ],
                        "Version": "3.2"
                    },
                    {
                        "Name": "SDTMIG",
                        "References": [
                            {
                                "Citations": [
                                    {
                                        "Document": "Model v1.7",
                                        "Section": "6.1.1",
                                        "Cited_Guidance": "Identifier for a related subject or pool of subjects. RSUBJID may be populated with the USUBJID of the related subject or the POOLID of the related pool.  RSUBJID will be null for data about associated persons who are related to the study but not to any study subjects"
                                    }
                                ],
                                "Origin": "SDTM and SDTMIG Conformance Rules",
                                "Version": "2.0",
                                "Rule_Identifier": {
                                    "Id": "CG0367",
                                    "Version": "1"
                                }
                            }
                        ],
                        "Version": "3.3"
                    }
                ]
            }
        ],
        "Check": {
            "all": [
                {
                    "name": "RSUBJID",
                    "operator": "non_empty"
                },
                {
                    "name": "RSUBJID",
                    "operator": "not_equal_to",
                    "value": "POOLID"
                },
                {
                    "name": "RSUBJID",
                    "operator": "is_not_contained_by",
                    "value": "$dm_usubjid"
                }
            ]
        },
        "Core": {
            "Id": "CORE-000235",
            "Status": "Draft",
            "Version": "1"
        },
        "Description": "Verify that RSUBJID=DM.USUBJID when RSUBJID is populated and RSUBJID is not equal to POOLID",
        "Executability": "Fully Executable",
        "Operations": [
            {
                "domain": "DM",
                "id": "$dm_usubjid",
                "name": "USUBJID",
                "operator": "distinct"
            }
        ],
        "Outcome": {
            "Message": "RSUBJID must equal DM.USUBJID when RSUBJID is populated and RSUBJID does not equal POOLID",
            "Output_Variables": [
                "USUBJID",
                "RSUBJID",
                "POOLID"
            ]
        },
        "Scope": {
            "Classes": {
                "Include": [
                    "ALL"
                ]
            },
            "Domains": {
                "Include": [
                    "AP--"
                ]
            }
        },
        "Sensitivity": "Record",
        "Rule_Type": "Record Data"
    },
    "datasets": [
        {
            "filename": "apdm.xpt",
            "label": "Associated Persons Demographics",
            "domain": "APDM",
            "variables": [
                {
                    "name": "STUDYID",
                    "label": "Study Identifier",
                    "type": "Char",
                    "length": 50
                },
                {
                    "name": "RSUBJID",
                    "label": "Related Subject or Pool Identifier",
                    "type": "Char",
                    "length": 50
                },
                {
                    "name": "RDEVID",
                    "label": "Related Device Identifier",
                    "type": "Char",
                    "length": 50
                },
                {
                    "name": "SREL",
                    "label": "Subject, Device, or Study Relationship",
                    "type": "Char",
                    "length": 50
                },
                {
                    "name": "DOMAIN",
                    "label": "Domain Abbreviation",
                    "type": "Char",
                    "length": 50
                },
                {
                    "name": "USUBJID",
                    "label": "Unique Subject Identifier",
                    "type": "Char",
                    "length": 50
                },
                {
                    "name": "SUBJID",
                    "label": "Subject Identifier for the Study",
                    "type": "Char",
                    "length": 50
                },
                {
                    "name": "POOLID",
                    "label": "Pool Identifier",
                    "type": "Char",
                    "length": 50
                },
                {
                    "name": "APID",
                    "label": "Associated Persons Identifier",
                    "type": "Char",
                    "length": 50
                },
                {
                    "name": "AGE",
                    "label": "Age",
                    "type": "Num",
                    "length": 8
                },
                {
                    "name": "AGEU",
                    "label": "Age Units",
                    "type": "Char",
                    "length": 50
                },
                {
                    "name": "SEX",
                    "label": "Sex",
                    "type": "Char",
                    "length": 50
                },
                {
                    "name": "RACE",
                    "label": "Race",
                    "type": "Char",
                    "length": 50
                }
            ],
            "records": {
                "STUDYID": [
                    "TRS_0520DS",
                    "TRS_0520DS"
                ],
                "RSUBJID": [
                    "PID_001",
                    "CDISC-TEST-001"
                ],
                "RDEVID": [
                    "",
                    ""
                ],
                "SREL": [
                    "DONOR, ORGAN",
                    "DONOR, ORGAN"
                ],
                "DOMAIN": [
                    "APDM",
                    "APDM"
                ],
                "USUBJID": [
                    "",
                    ""
                ],
                "SUBJID": [
                    "",
                    ""
                ],
                "POOLID": [
                    "PID_001",
                    "PID_001"
                ],
                "APID": [
                    "D456",
                    "D456"
                ],
                "AGE": [
                    35,
                    35
                ],
                "AGEU": [
                    "YEARS",
                    "YEARS"
                ],
                "SEX": [
                    "F",
                    "F"
                ],
                "RACE": [
                    "BLACK",
                    "BLACK"
                ]
            }
        },
        {
            "filename": "dm.xpt",
            "label": "Demographics",
            "domain": "DM",
            "variables": [
                {
                    "name": "STUDYID",
                    "label": "Study Identifier",
                    "type": "Char",
                    "length": 10
                },
                {
                    "name": "DOMAIN",
                    "label": "Domain Abbreviation",
                    "type": "Char",
                    "length": 2
                },
                {
                    "name": "USUBJID",
                    "label": "Unique Subject Identifier",
                    "type": "Char",
                    "length": 14
                },
                {
                    "name": "SUBJID",
                    "label": "Subject Identifier for the Study",
                    "type": "Char",
                    "length": 3
                },
                {
                    "name": "RFSTDTC",
                    "label": "Subject Reference Start Date/Time",
                    "type": "Char",
                    "length": 10
                },
                {
                    "name": "RFENDTC",
                    "label": "Subject Reference End Date/Time",
                    "type": "Char",
                    "length": 10
                },
                {
                    "name": "RFXSTDTC",
                    "label": "Date/Time of First Study Treatment",
                    "type": "Char",
                    "length": 10
                },
                {
                    "name": "RFXENDTC",
                    "label": "Date/Time of Last Study Treatment",
                    "type": "Char",
                    "length": 10
                },
                {
                    "name": "RFICDTC",
                    "label": "Date/Time of Informed Consent",
                    "type": "Char",
                    "length": 10
                },
                {
                    "name": "RFPENDTC",
                    "label": "Date/Time of End of Participation",
                    "type": "Char",
                    "length": 10
                },
                {
                    "name": "DTHDTC",
                    "label": "Date/Time of Death",
                    "type": "Char",
                    "length": 1
                },
                {
                    "name": "DTHFL",
                    "label": "Subject Death Flag",
                    "type": "Char",
                    "length": 1
                },
                {
                    "name": "SITEID",
                    "label": "Study Site Identifier",
                    "type": "Char",
                    "length": 3
                },
                {
                    "name": "AGE",
                    "label": "Age",
                    "type": "Num",
                    "length": 8
                },
                {
                    "name": "AGEU",
                    "label": "Age Units",
                    "type": "Char",
                    "length": 5
                },
                {
                    "name": "SEX",
                    "label": "Sex",
                    "type": "Char",
                    "length": 1
                },
                {
                    "name": "RACE",
                    "label": "Race",
                    "type": "Char",
                    "length": 1
                },
                {
                    "name": "ARMCD",
                    "label": "Planned Arm Code",
                    "type": "Char",
                    "length": 1
                },
                {
                    "name": "ARM",
                    "label": "Description of Planned Arm",
                    "type": "Char",
                    "length": 13
                },
                {
                    "name": "ACTARMCD",
                    "label": "Actual Arm Code",
                    "type": "Char",
                    "length": 1
                },
                {
                    "name": "ACTARM",
                    "label": "Description of Actual Arm",
                    "type": "Char",
                    "length": 13
                },
                {
                    "name": "COUNTRY",
                    "label": "Country",
                    "type": "Char",
                    "length": 3
                },
                {
                    "name": "RSUBJID",
                    "label": "Related Subject or Pool Identifier",
                    "type": "Char",
                    "length": 50
                }
            ],
            "records": {
                "STUDYID": [
                    "CDISC-TEST",
                    "CDISC-TEST"
                ],
                "DOMAIN": [
                    "DM",
                    "DM"
                ],
                "USUBJID": [
                    "CDISC-TEST-001",
                    "CDISC-TEST-002"
                ],
                "SUBJID": [
                    "001",
                    "002"
                ],
                "RFSTDTC": [
                    "2019-03-12",
                    "2019-01-30"
                ],
                "RFENDTC": [
                    "2019-09-10",
                    "2019-07-31"
                ],
                "RFXSTDTC": [
                    "2019-03-12",
                    "2019-01-30"
                ],
                "RFXENDTC": [
                    "2019-09-10",
                    "2019-07-31"
                ],
                "RFICDTC": [
                    "2019-02-25",
                    "2019-01-15"
                ],
                "RFPENDTC": [
                    "2019-10-10",
                    "2019-08-30"
                ],
                "DTHDTC": [
                    "",
                    ""
                ],
                "DTHFL": [
                    "",
                    ""
                ],
                "SITEID": [
                    "102",
                    "103"
                ],
                "AGE": [
                    26,
                    34
                ],
                "AGEU": [
                    "YEARS",
                    "YEARS"
                ],
                "SEX": [
                    "F",
                    "M"
                ],
                "RACE": [
                    "",
                    ""
                ],
                "ARMCD": [
                    "A",
                    "A"
                ],
                "ARM": [
                    "HUMAN INSULIN",
                    "HUMAN INSULIN"
                ],
                "ACTARMCD": [
                    "A",
                    "A"
                ],
                "ACTARM": [
                    "HUMAN INSULIN",
                    "HUMAN INSULIN"
                ],
                "COUNTRY": [
                    "FRA",
                    "JPN"
                ],
                "RSUBJID": [
                    "CDISC-TEST-001",
                    "TRS_0520DS_056"
                ]
            }
        }
    ],
    "codelists": []
}