STUDYID,DOMAIN,USUBJID,VSSEQ,VSTESTCD,VSTEST,VSPOS,VSORRES,VSORRESU,VSSTRESC,VSSTRESN,VSSTRESU,VSSTAT,VSLOC,VISITNUM,VISIT,EPOCH,VSDTC,VSDY
CDISCPILOT01,VS,CDISC001,1,DIABP_1,Diastolic Blood Pressure,STANDING,71,mmHg,71,71,mmHg,,,1,SCREENING 1,SCREENING,2012-11-23,-7
CDISCPILOT01,VS,CDISC001,2,DIABP,Diastolic Blood Pressure,STANDING,71,mmHg,71,71,mmHg,,,2,SCREENING 2,SCREENING,2012-11-28,-2
CDISCPILOT01,VS,CDISC001,3,DIABP,Diastolic Blood Pressure,STANDING,83,mmHg,83,83,mmHg,,,3,BASELINE,SCREENING,2012-11-30,1
CDISCPILOT01,VS,CDISC001,4,DIABP,Diastolic Blood Pressure,STANDING,79,mmHg,79,79,mmHg,,,4,WEEK 2,TREATMENT,2012-12-13,14
CDISCPILOT01,VS,CDISC001,5,DIABP,Diastolic Blood Pressure,STANDING,68,mmHg,68,68,mmHg,,,5,WEEK 4,TREATMENT,2012-12-26,27
CDISCPILOT01,VS,CDISC001,6,DIA_BP,Diastolic Blood Pressure,SUPINE,77,mmHg,77,77,mmHg,,,7,WEEK 6,TREATMENT,2013-01-10,42
CDISCPILOT01,VS,CDISC001,7,DIABP,Diastolic Blood Pressure,STANDING,71,mmHg,71,71,mmHg,,,7,WEEK 6,TREATMENT,2013-01-10,42
CDISCPILOT01,VS,CDISC001,8,DIABP,Diastolic Blood Pressure,STANDING,69,mmHg,69,69,mmHg,,,7,WEEK 6,TREATMENT,2013-01-10,42
CDISCPILOT01,VS,CDISC001,9,DIABP,Diastolic Blood Pressure,SUPINE,76,mmHg,76,76,mmHg,,,8,WEEK 8,TREATMENT,2013-01-23,55
CDISCPILOT01,VS,CDISC001,20,PULSE,Pulse Rate,STANDING,51,beats/min,51,51,beats/min,,,5,WEEK 4,TREATMENT,2012-12-26,27
CDISCPILOT01,VS,CDISC001,21,PULSE123,Pulse Rate,SUPINE,52,beats/min,52,52,beats/min,,,7,WEEK 6,TREATMENT,2013-01-10,42
CDISCPILOT01,VS,CDISC001,22,PULSE,Pulse Rate,STANDING,62,beats/min,62,62,beats/min,,,7,WEEK 6,TREATMENT,2013-01-10,42
CDISCPILOT01,VS,CDISC001,23,PULSE,Pulse Rate,STANDING,62,beats/min,62,62,beats/min,,,7,WEEK 6,TREATMENT,2013-01-10,42
CDISCPILOT01,VS,CDISC001,24,PULSE,Pulse Rate,SUPINE,50,beats/min,50,50,beats/min,,,8,WEEK 8,TREATMENT,2013-01-23,55
CDISCPILOT01,VS,CDISC001,25,PULSE,Pulse Rate,STANDING,52,beats/min,52,52,beats/min,,,8,WEEK 8,TREATMENT,2013-01-23,55
CDISCPILOT01,VS,CDISC001,26,PULSE,Pulse Rate,STANDING,54,beats/min,54,54,beats/min,,,8,WEEK 8,TREATMENT,2013-01-23,55
CDISCPILOT01,VS,CDISC001,27,PULSE,Pulse Rate,SUPINE,79,beats/min,79,79,beats/min,,,201,EARLY DISCONTINUATION RETRIEVAL,TREATMENT,2013-05-20,172
CDISCPILOT01,VS,CDISC001,28,PULSE,Pulse Rate,STANDING,98,beats/min,98,98,beats/min,,,201,EARLY DISCONTINUATION RETRIEVAL,TREATMENT,2013-05-20,172
CDISCPILOT01,VS,CDISC001,29,PULSE,Pulse Rate,STANDING,94,beats/min,94,94,beats/min,,,201,EARLY DISCONTINUATION RETRIEVAL,TREATMENT,2013-05-20,172
CDISCPILOT01,VS,CDISC001,30,SYSBP,Systolic Blood Pressure,STANDING,137,mmHg,137,137,mmHg,,,1,SCREENING 1,SCREENING,2012-11-23,-7
CDISCPILOT01,VS,CDISC001,31,SYSBP,Systolic Blood Pressure,STANDING,137,mmHg,137,137,mmHg,,,2,SCREENING 2,SCREENING,2012-11-28,-2
CDISCPILOT01,VS,CDISC001,32,SYSBP,Systolic Blood Pressure,STANDING,130,mmHg,130,130,mmHg,,,3,BASELINE,SCREENING,2012-11-30,1
CDISCPILOT01,VS,CDISC001,46,TEMP,Temperature,,98.0,F,36.67,36.68,C,,ORAL CAVITY,3,BASELINE,SCREENING,2012-11-30,1
CDISCPILOT01,VS,CDISC001,47,TEMP,Temperature,,98.0,F,36.67,36.68,C,,ORAL CAVITY,4,WEEK 2,TREATMENT,2012-12-13,14
CDISCPILOT01,VS,CDISC001,48,TEMP,Temperature,,97.7,F,36.5,36.6,C,,ORAL CAVITY,5,WEEK 4,TREATMENT,2012-12-26,27
CDISCPILOT01,VS,CDISC001,49,TEMP,Temperature,,97.6,F,36.44,36.45,C,,ORAL CAVITY,7,WEEK 6,TREATMENT,2013-01-10,42
CDISCPILOT01,VS,CDISC001,50,TEMP,Temperature,,97.6,F,36.44,36.45,C,,ORAL CAVITY,8,WEEK 8,TREATMENT,2013-01-23,55
CDISCPILOT01,VS,CDISC001,51,TEMP,Temperature,,97.4,F,36.33,36.34,C,,ORAL CAVITY,201,EARLY DISCONTINUATION RETRIEVAL,TREATMENT,2013-05-20,172
CDISCPILOT01,VS,CDISC001,52,WEIGHT,Weight,,173.5,LB,78.7,78.8,kg,,,1,SCREENING 1,SCREENING,2012-11-23,-7
CDISCPILOT01,VS,CDISC001,53,WEIGHT,Weight,,174.0,LB,78.93,78.94,kg,,,3,BASELINE,SCREENING,2012-11-30,1
CDISCPILOT01,VS,CDISC001,54,WEIGHT,Weight,,174.0,LB,78.93,78.94,kg,,,4,WEEK 2,TREATMENT,2012-12-13,14
CDISCPILOT01,VS,CDISC001,55,WEIGHT,Weight,,173.0,LB,78.47,78.48,kg,,,5,WEEK 4,TREATMENT,2012-12-26,27
CDISCPILOT01,VS,CDISC001,56,WEIGHT,Weight,,173.0,LB,78.47,78.48,kg,,,7,WEEK 6,TREATMENT,2013-01-10,42
CDISCPILOT01,VS,CDISC001,57,WEIGHT,Weight,,173.0,LB,78.47,78.48,kg,,,8,WEEK 8,TREATMENT,2013-01-23,55
