STUDYID,DOMAIN,USUBJID,SCSEQ,SCTESTCD,SCTEST,SCORRES,SCORRESU,SCSTRESC ,SCSTRESN,SCSTRESU,SCDTC,SCDY
CDISCCORE01,SC,015246-099-0000-00000,1,HAIRCOLR ,Hair Coat Color,Bluetick ,,Bluetick ,,,2008-01-19,1
CDISCCORE01,SC,015246-099-0000-00001,1,PHYMARK ,Physical Marking ,Non-USDA Tattoo # ,,Non-USDA Tattoo # ,,,2008-01-19,1
CDISCCORE01,SC,015246-099-0000-00003,1,HAIRCOLR ,Hair Coat Color,Redtick,,Redtick,,,2008-01-19,1
CDISCCORE01,SC,015246-099-0000-00003,2,PHYMARK ,Physical Marking ,Tail Bobbed ,,Tail Bobbed ,,,2008-01-19,1
