STUDYID,DOMAIN,USUBJID,SESEQ,ETCD,ELEMENT,TAETORD,EPOCH,SESTDTC,SEENDTC,SESTDY,SEENDY,SEUPDES
CORE01,SE,123,1,SCRN,Screening,1,SCREENING,2006-06-01,2006-06-03,-2,1,
CORE01,SE,123,2,DBA,Drug A,2,BLINDED TREATMENT,2006-06-03,2006-06-10,1,8,
CORE01,SE,456,1,SCRN,Screening,1,SCREENING,2006-05-01,2006-05-03,-2,1,
CORE01,SE,456,2,DBA,Drug A,2,BLINDED TREATMENT,2006-05-03,2006-05-31,1,29,
CORE01,SE,456,3,UNPLAN,,,BLINDED TREATMENT,2006-05-31,2006-06-13,29,42,Drug B dispensed in error
CORE01,SE,456,4,RSC,Rescue Medication,3,OPEN LABEL TREATMENT,2006-06-13,2006-07-30,42,89,
