{
  "rule": {
    "Check": {
      "all": [
        {
          "name": "--SCAT",
          "operator": "equal_to_case_insensitive",
          "value": "$domain_label"
        }
      ]
    },
    "Operations": [
      {
        "id": "$domain_label",
        "operator": "domain_label"
      }
    ],
    "Core": {
      "Id": "CORE-000219",
      "Version": "1",
      "Status": "Draft"
    },
    "Description": "Raise an error when --SCAT = domain dataset label.",
    "Outcome": {
      "Message": "--SCAT is equal to domain dataset label.",
      "Output_Variables": [
        "--SCAT"
      ]
    },
    "Sensitivity": "Record",
    "Executability": "Fully Executable",
    "Authorities": [
      {
        "Organization": "CDISC",
        "Standards": [
          {
            "Name": "SDTMIG",
            "Version": "3.4",
            "References": [
              {
                "Origin": "SDTM and SDTMIG Conformance Rules",
                "Version": "2.0",
                "Citations": [
                  {
                    "Document": "IG v3.4",
                    "Section": "4.2.6",
                    "Cited_Guidance": "Values for --CAT and --SCAT should not be redundant with the domain name or dictionary classification provided by --DECOD and --BODSYS."
                  }
                ],
                "Rule_Identifier": {
                  "Id": "CG0350",
                  "Version": "1"
                }
              }
            ]
          },
          {
            "Name": "SDTMIG",
            "Version": "3.3",
            "References": [
              {
                "Origin": "SDTM and SDTMIG Conformance Rules",
                "Version": "2.0",
                "Citations": [
                  {
                    "Document": "IG v3.3",
                    "Section": "4.2.6",
                    "Cited_Guidance": "Values for --CAT and --SCAT should not be redundant with the domain name or dictionary classification provided by --DECOD and --BODSYS."
                  }
                ],
                "Rule_Identifier": {
                  "Id": "CG0350",
                  "Version": "1"
                }
              }
            ]
          },
          {
            "Name": "SDTMIG",
            "Version": "3.2",
            "References": [
              {
                "Origin": "SDTM and SDTMIG Conformance Rules",
                "Version": "2.0",
                "Citations": [
                  {
                    "Document": "IG v3.2",
                    "Section": "4.1.2.6",
                    "Cited_Guidance": "Values for --CAT and --SCAT should not be redundant with the domain name or dictionary classification provided by --DECOD and --BODSYS."
                  }
                ],
                "Rule_Identifier": {
                  "Id": "CG0350",
                  "Version": "1"
                }
              }
            ]
          }
        ]
      }
    ],
    "Scope": {
      "Classes": {
        "Include": [
          "ALL"
        ]
      },
      "Domains": {
        "Include": [
          "ALL"
        ]
      }
    },
    "Rule_Type": "Record Data"
  },
  "datasets": [
    {
      "filename": "cm.xpt",
      "label": "Concomitant/Prior Medications",
      "domain": "CM",
      "variables": [
        {
          "name": "STUDYID",
          "label": "Study Identifier",
          "type": "Char",
          "length": 12
        },
        {
          "name": "DOMAIN",
          "label": "Domain Abbreviation",
          "type": "Char",
          "length": 2
        },
        {
          "name": "USUBJID",
          "label": "Unique Subject Identifier",
          "type": "Char",
          "length": 8
        },
        {
          "name": "CMSEQ",
          "label": "Sequence Number",
          "type": "Num",
          "length": 8
        },
        {
          "name": "CMTRT",
          "label": "Reported Name of Drug, Med, or Therapy",
          "type": "Char",
          "length": 200
        },
        {
          "name": "CMCAT",
          "label": "Category for Medication",
          "type": "Char",
          "length": 200
        },
        {
          "name": "CMSCAT",
          "label": "Subcategory for Medication",
          "type": "Char",
          "length": 200
        },
        {
          "name": "CMINDC",
          "label": "Indication",
          "type": "Char",
          "length": 200
        },
        {
          "name": "CMDOSE",
          "label": "Dose per Administration",
          "type": "Num",
          "length": 8
        },
        {
          "name": "CMDOSU",
          "label": "Dose Units",
          "type": "Char",
          "length": 6
        },
        {
          "name": "CMDOSFRQ",
          "label": "Dosing Frequency per Interval",
          "type": "Char",
          "length": 3
        },
        {
          "name": "CMROUTE",
          "label": "Route of Administration",
          "type": "Char",
          "length": 24
        },
        {
          "name": "EPOCH",
          "label": "Epoch",
          "type": "Char",
          "length": 9
        },
        {
          "name": "CMSTDTC",
          "label": "Start Date/Time of Medication",
          "type": "Char",
          "length": 10
        },
        {
          "name": "CMENDTC",
          "label": "End Date/Time of Medication",
          "type": "Char",
          "length": 10
        },
        {
          "name": "CMSTDY",
          "label": "Study Day of Start of Medication",
          "type": "Num",
          "length": 8
        },
        {
          "name": "CMENDY",
          "label": "Study Day of End of Medication",
          "type": "Num",
          "length": 8
        },
        {
          "name": "CMENRTPT",
          "label": "End Relative to Reference Time Point",
          "type": "Char",
          "length": 7
        },
        {
          "name": "CMENTPT",
          "label": "End Reference Time Point",
          "type": "Char",
          "length": 10
        }
      ],
      "records": {
        "STUDYID": [
          "CDISCPILOT01",
          "CDISCPILOT01",
          "CDISCPILOT01",
          "CDISCPILOT01",
          "CDISCPILOT01",
          "CDISCPILOT01",
          "CDISCPILOT01",
          "CDISCPILOT01",
          "CDISCPILOT01",
          "CDISCPILOT01"
        ],
        "DOMAIN": [
          "CM",
          "CM",
          "CM",
          "CM",
          "CM",
          "CM",
          "CM",
          "CM",
          "CM",
          "CM"
        ],
        "USUBJID": [
          "CDISC001",
          "CDISC001",
          "CDISC001",
          "CDISC001",
          "CDISC001",
          "CDISC001",
          "CDISC001",
          "CDISC002",
          "CDISC002",
          "CDISC002"
        ],
        "CMSEQ": [
          1,
          2,
          3,
          4,
          5,
          6,
          7,
          1,
          2,
          3
        ],
        "CMTRT": [
          "ASPIRIN",
          "METAMUCIL",
          "HYDROCORTISONE, TOPICAL",
          "HYTRIN",
          "ASPIRIN",
          "FEOSOL",
          "PRAVACHOL",
          "DEMEROL",
          "TYLENOL W/CODEINE NO. 3",
          "HYDROCORTISONE"
        ],
        "CMCAT": [
          "PRIOR MEDICATION",
          "PRIOR MEDICATION",
          "PRIOR MEDICATION",
          "PRIOR MEDICATION",
          "",
          "CONCOMITANT MEDICATION",
          "",
          "",
          "",
          ""
        ],
        "CMSCAT": [
          "MEDS",
          "MEDS",
          "MEDS",
          "MEDS",
          "",
          "MEDS",
          "Concomitant/ Prior Medications",
          "MEDS",
          "MEDS",
          "MEDS"
        ],
        "CMINDC": [
          "PROPHYLAXIS OR NON-THERAPEUTIC USE",
          "PROPHYLAXIS OR NON-THERAPEUTIC USE",
          "PROPHYLAXIS OR NON-THERAPEUTIC USE",
          "PROPHYLAXIS OR NON-THERAPEUTIC USE",
          "PROPHYLAXIS OR NON-THERAPEUTIC USE",
          "PROPHYLAXIS OR NON-THERAPEUTIC USE",
          "PROPHYLAXIS OR NON-THERAPEUTIC USE",
          "PROPHYLAXIS OR NON-THERAPEUTIC USE",
          "PROPHYLAXIS OR NON-THERAPEUTIC USE",
          "PROPHYLAXIS OR NON-THERAPEUTIC USE"
        ],
        "CMDOSE": [
          1,
          1,
          1,
          2,
          80,
          325,
          20,
          50,
          2,
          1
        ],
        "CMDOSU": [
          "TABLET",
          "TABLET",
          "TABLET",
          "TABLET",
          "mg",
          "mg",
          "mg",
          "mg",
          "TABLET",
          "TABLET"
        ],
        "CMDOSFRQ": [
          "QD",
          "PRN",
          "BID",
          "Q4H",
          "QID",
          "Q6H",
          "",
          "",
          "",
          ""
        ],
        "CMROUTE": [
          "ORAL",
          "ORAL",
          "TOPICAL",
          "ORAL",
          "ORAL",
          "ORAL",
          "ORAL",
          "INTRAVENOUS",
          "ORAL",
          "TOPICAL"
        ],
        "EPOCH": [
          "SCREENING",
          "SCREENING",
          "TREATMENT",
          "TREATMENT",
          "TREATMENT",
          "TREATMENT",
          "TREATMENT",
          "TREATMENT",
          "TREATMENT",
          "TREATMENT"
        ],
        "CMSTDTC": [
          "2011",
          "2012-08",
          "2013-01-11",
          "2013-04-19",
          "2013-04-29",
          "2013-04-29",
          "2013-05-08",
          "2012-11-21",
          "2012-11-21",
          "2012-12-08"
        ],
        "CMENDTC": [
          "2013-04-29",
          "",
          "",
          "2013-05-14",
          "",
          "",
          "",
          "2012-11-21",
          "2012-11-21",
          "2013-01-14"
        ],
        "CMSTDY": [
          null,
          null,
          43,
          141,
          151,
          151,
          160,
          7,
          7,
          24
        ],
        "CMENDY": [
          151,
          null,
          null,
          166,
          null,
          null,
          null,
          7,
          7,
          61
        ],
        "CMENRTPT": [
          "",
          "ONGOING",
          "ONGOING",
          "",
          "ONGOING",
          "ONGOING",
          "ONGOING",
          "",
          "",
          ""
        ],
        "CMENTPT": [
          "",
          "2013-05-20",
          "2013-05-20",
          "",
          "2013-05-20",
          "2013-05-20",
          "2013-05-20",
          "",
          "",
          ""
        ]
      }
    }
  ],
  "standard": {
    "product": "sdtmig",
    "version": "3-3"
  },
  "codelists": []
}