STUDYID,DOMAIN,USUBJID,SESEQ,ETCD,ELEMENT,EPOCH,SESTDTC,SEENDTC,SESTDY,SEENDY
CDISCPILOT01,SE,CDISC001,1,SCREEN,Screening,SCREENING,2012-11-23,2012-11-30,-7,1
CDISCPILOT01,SE,CDISC001,2,LOWER,Zanomaline 54 mg,TREATMENT,2012-11-30,2013-05-20,1,172
CDISCPILOT01,SE,CDISC002,1,SCREENING,Screening,SCREENING,2012-10-30,2012-11-15,-16,1
CDISCPILOT01,SE,CDISC002,2,HIGHEST,Zanomaline 54 mg,TREATMENT,2012-11-15,2013-01-14,1,61
