STUDYID,DOMAIN,USUBJID,RFICDTC,RFPENDTC,DTHDTC,DTHFL,SITEID,BRTHDTC,AGE,AGEU,SEX,RACE,ETHNIC
CDISCCORE01,DM,S001,2018-04-16,2018-05-04,,N,0990000,1940-08-14,77,YEARS,M,WHITE,HISPANIC OR LATINO
CDISCCORE01,DM,S002,2018-05-20,2018-06-10,,U,0990000,1941-08-14,76,YEARS,M,WHITE,NOT HISPANIC OR LATINO
CDISCCORE01,DM,S003,2018-05-20,2018-06-10,2018-06-10,,0990000,1942-08-14,,YEARS,F,"BLACK OR
AFRICAN
AMERICAN",HISPANIC OR LATINO
CDISCCORE01,DM,S004,2018-04-17,2018-09-04,2018-09-04,N,0990000,1947-12-23,70,YEARS,F,WHITE,HISPANIC OR LATINO
