STUDYID,DOMAIN,USUBJID,SUBJID,RFSTDTC,RFENDTC,RFXSTDTC,RFXENDTC,RFICDTC,RFPENDTC,DTHDTC,DTHFL,SITEID,BRTHDTC,AGE,AGEU,SEX,RACE,ETHNIC,ARMCD,ARM,ACTARMCD,ACTARM,ARMNRS,ACTARMUD,COUNTRY
CDISCPILOT01,DM,CDISC001,1115,2012-11-30,2013-01-23,2012-11-30,2013-01-23,2012-11-23,2013-05-20,,,701,1928,84,YEARS,M,WHITE,NOT HISPANIC OR LATINO,ZAN_LOW,Zanomaline Low Dose (54 mg),ZAN_LOW,Zanomaline Low Dose (54 mg),,,USA
CDISCPILOT01,DM,CDISC002,1211,2012-11-15,2013-01-14,2012-11-15,2013-01-12,2012-10-30,2013-01-14,2013-01-14,Y,701,1936,76,YEARS,F,WHITE,NOT HISPANIC OR LATINO,ZAN_LOW,Zanomaline Low Dose (54 mg),ZAN_LOW,Zanomaline Low Dose (54 mg),,,USA
CDISCPILOT01,DM,CDISC003,1302,2013-08-29,2013-11-05,2013-08-29,2013-11-05,2013-08-20,2014-02-13,,,701,1951,61,YEARS,M,WHITE,NOT HISPANIC OR LATINO,ZAN_HIGH,Zanomaline High Dose (81 mg),ZAN_HIGH,Zanomaline High Dose (81 mg),,,USA
CDISCPILOT01,DM,CDISC004,1345,2013-10-08,2014-03-18,2013-10-08,2014-03-18,2013-10-01,2014-03-18,,,701,1950,63,YEARS,F,WHITE,NOT HISPANIC OR LATINO,,,,,SCREEN FAILURE,,USA
CDISCPILOT01,DM,CDISC005,1383,2013-02-04,2013-08-06,2013-02-04,2013-08-06,2013-01-22,2013-08-06,,,701,1941,72,YEARS,F,WHITE,NOT HISPANIC OR LATINO,ZAN_HIGH,Zanomaline High Dose (81 mg),,,NOT TREATED,,USA
CDISCPILOT01,DM,CDISC006,1429,2013-03-19,2013-04-30,2013-03-19,2013-04-30,2013-02-25,2013-04-30,,,701,1929,84,YEARS,F,WHITE,NOT HISPANIC OR LATINO,,,,,NOT ASSIGNED,,USA
CDISCPILOT01,DM,CDISC007,1444,2013-01-05,2013-02-13,2013-01-05,2013-02-12,2012-12-31,2013-06-20,,,701,1949,63,YEARS,M,WHITE,HISPANIC OR LATINO,ZAN_HIGH,Zanomaline High Dose (81 mg),ZAN_HIGH,,UNPLANNED,,USA
CDISCPILOT01,DM,CDISC008,1445,2014-05-11,2014-11-01,2014-05-11,2014-11-01,2014-05-01,2014-11-01,2014-11-01,Y,704,1939,75,YEARS,M,MULTIPLE,NOT HISPANIC OR LATINO,PLACEBO,Placebo,PLACEBO,Placebo,,,USA
CDISCPILOT01,DM,CDISC009,1087,2012-10-22,2013-04-28,2012-10-22,2013-04-28,2012-10-06,2013-04-28,,,708,1938,74,YEARS,F,WHITE,NOT HISPANIC OR LATINO,PLACEBO,Placebo,PLACEBO,Placebo,,,USA
CDISCPILOT01,DM,CDISC010,1236,2013-09-21,2013-09-26,2013-09-21,2013-09-21,2013-09-08,2013-09-26,,,708,1927,86,YEARS,F,WHITE,NOT HISPANIC OR LATINO,ZAN_HIGH,Zanomaline High Dose (81 mg),ZAN_HIGH,Zanomaline High Dose (81 mg),,,USA
