STUDYID,DOMAIN,USUBJID,AESEQ,AESPID,AETERM,AELLT,AELLTCD,AEDECOD,AEPTCD,AEHLT,AEHLTCD,AEHLGT,AEHLGTCD,AEBODSYS,AEBDSYCD,AESOC,AESOCCD,AESEV,AESER,AEACN,AEREL,AEOUT,AESCAN,AESCONG,AESDISAB,AESDTH,AESHOSP,AESLIFE,AESOD,AESMIE,AESTDTC,AEENDTC,AESTDY
CDISC-TEST,AE,CDISC-TEST-001,1,1,UPSET STOMACH,Upset stomach,10046318,Abdominal discomfort,10000059,Gastrointestinal signs and symptoms NEC,10027678,Gastrointestinal signs and symptoms,10018012,Gastrointestinal disorders,10017947,Gastrointestinal disorders,10017947,MILD,Y,,,RECOVERED/RESOLVED,Y,Y,Y,Y,Y,Y,Y,Y,2019-05-21,,70
CDISC-TEST,AE,CDISC-TEST-001,2,3,UPSET STOMACH,Upset stomach,10046318,Abdominal discomfort,10000059,Gastrointestinal signs and symptoms NEC,10027678,Gastrointestinal signs and symptoms,10018012,Gastrointestinal disorders,10017947,Gastrointestinal disorders,10017947,MILD,N,,,RECOVERED/RESOLVED,N,N,N,N,N,N,N,N,2019-06-15,,95
CDISC-TEST,AE,CDISC-TEST-001,4,15,BACK PAIN,Back pain,10003988,Back pain,10003988,Musculoskeletal and connective tissue pain and discomfort,10068757,Musculoskeletal and connective tissue disorders NEC,10028393,Musculoskeletal and connective tissue disorders,10028395,Musculoskeletal and connective tissue disorders,10028395,MILD,Y,,,RECOVERED/RESOLVED,Y,N,N,N,N,N,N,N,2019-04-29,,48
CDISC-TEST,AE,CDISC-TEST-001,5,6,DIARRHOEA,Diarrhoea,10012735,Diarrhoea,10012735,Diarrhoea (excl infective),10012736,Gastrointestinal motility and defaecation conditions,10017977,Gastrointestinal disorders,10017947,Gastrointestinal disorders,10017947,MILD,Y,,,RECOVERED/RESOLVED,N,Y,N,N,N,N,N,N,2019-08-11,,152
CDISC-TEST,AE,CDISC-TEST-002,18,18,BACK PAIN,Back pain,10003988,Back pain,10003988,Musculoskeletal and connective tissue pain and discomfort,10068757,Musculoskeletal and connective tissue disorders NEC,10028393,Musculoskeletal and connective tissue disorders,10028395,Musculoskeletal and connective tissue disorders,10028395,MILD,Y,,,RECOVERED/RESOLVED,N,N,N,N,N,N,Y,N,2019-02-28,,29
CDISC-TEST,AE,CDISC-TEST-002,19,17,BRONCHITIS,Bronchitis,10006451,Bronchitis,10006451,Lower respiratory tract and lung infections,10025101,Infections - pathogen unspecified,10021879,Infections and infestations,10021881,Infections and infestations,10021881,MILD,Y,,,RECOVERED/RESOLVED,N,N,N,N,N,Y,N,N,2019-02-19,,20
CDISC-TEST,AE,CDISC-TEST-002,20,22,DIARRHOEA,Diarrhoea,10012735,Diarrhoea,10012735,Diarrhoea (excl infective),10012736,Gastrointestinal motility and defaecation conditions,10017977,Gastrointestinal disorders,10017947,Gastrointestinal disorders,10017947,MILD,Y,,,RECOVERED/RESOLVED,N,N,Y,N,N,N,N,N,2019-04-22,,82
CDISC-TEST,AE,CDISC-TEST-002,29,23,HYPOGLYCAEMIA,Hypoglycaemia,10020993,Hypoglycaemia,10020993,Hypoglycaemic conditions NEC,10021001,Glucose metabolism disorders (incl diabetes mellitus),10018424,Metabolism and nutrition disorders,10027433,Metabolism and nutrition disorders,10027433,MILD,Y,,,RECOVERED/RESOLVED,N,N,N,N,N,N,N,Y,2019-04-05,,65
CDISC-TEST,AE,CDISC-TEST-019,296,305,DIARRHOEA,Diarrhoea,10012735,Diarrhoea,10012735,Diarrhoea (excl infective),10012736,Gastrointestinal motility and defaecation conditions,10017977,Gastrointestinal disorders,10017947,Gastrointestinal disorders,10017947,MILD,Y,,,RECOVERED/RESOLVED,N,N,N,Y,N,N,N,N,2019-05-03,,57
CDISC-TEST,AE,CDISC-TEST-019,297,294,HEADACHE,Headache,10019211,Headache,10019211,Headaches NEC,10019233,Headaches,10019231,Nervous system disorders,10029205,Nervous system disorders,10029205,MILD,Y,,,RECOVERED/RESOLVED,N,N,N,N,Y,N,N,N,2019-06-24,,109
CDISC-TEST,AE,CDISC-TEST-019,298,297,HEADACHE,Headache,10019211,Headache,10019211,Headaches NEC,10019233,Headaches,10019231,Nervous system disorders,10029205,Nervous system disorders,10029205,MILD,,,,RECOVERED/RESOLVED,,,,,,,,,2019-08-11,,157
CDISC-TEST,AE,CDISC-TEST-021,338,333,HYPERTENSION,Hypertension,10020772,Hypertension,10020772,Vascular hypertensive disorders NEC,10020774,Vascular hypertensive disorders,10057166,Vascular disorders,10047065,Vascular disorders,10047065,MILD,N,,,RECOVERED/RESOLVED,,,,,,,,,2019-03-19,,61
