STUDYID,DOMAIN,USUBJID,DSTERM,DSDECOD,DSCAT,EPOCH,DSSTDTC
CDISCPILOT01,DS,CDISC001,INFORMED CONSENT OBTAINED,INFORMED CONSENT OBTAINED,PROTOCOL MILESTONE,SCREENING,2006-01-01
CDISCPILOT01,DS,CDISC001,RANDOMIZED,RANDOMIZED,PROTOCOL MILESTONE,SCREENING,2006-01-20
CDISCPILOT01,DS,CDISC001,COMPLETED,COMPLETED,DISPOSITION EVENT,SCREENING,2006-01-28
CDISCPILOT01,DS,CDISC001,COMPLETED,COMPLETED,DISPOSITION EVENT,TREATMENT,2006-03-10
CDISCPILOT01,DS,CDISC001,HEART FAILURE,DEATH,DISPOSITION EVENT,FOLLOW-UP,2006-04-01
CDISCPILOT01,DS,CDISC002,INFORMED CONSENT OBTAINED,INFORMED CONSENT OBTAINED,PROTOCOL MILESTONE,SCREENING,2006-01-04
CDISCPILOT01,DS,CDISC002,RANDOMIZED,RANDOMIZED,PROTOCOL MILESTONE,SCREENING,2006-01-18
CDISCPILOT01,DS,CDISC002,COMPLETED,COMPLETED,DISPOSITION EVENT,SCREENING,2006-01-20
CDISCPILOT01,DS,CDISC002,COMPLETED,COMPLETED,DISPOSITION EVENT,TREATMENT,2006-02-28
CDISCPILOT01,DS,CDISC002,ACCIDENT,DEATH,DISPOSITION EVENT,FOLLOW-UP,2006-03-26
