STUDYID,DOMAIN,USUBJID,SUBJID,VISITNUM,VISIT,EPOCH,SVSTDTC,SVENDTC,SVSTDY,SVENDY,SVUPDES
CDISCPILOT01,SV,CDISC001,1,1,SCREENING,SCREENING,2021-04-27,2021-04-27,-28,1,
CDISCPILOT01,SV,CDISC001,1,2,DAY 1,SCREENING,2021-05-01,2021-05-01,1,,
CDISCPILOT01,SV,CDISC001,1,3,DAY 2,SCREENING,2021-04-27,2021-04-27,-28,,YES
CDISCPILOT01,SV,CDISC001,1,4,DAY 3,7,8,9,10,,
