{
    "rule": {
        "Authorities": [
            {
                "Organization": "CDISC",
                "Standards": [
                    {
                        "Name": "SDTMIG",
                        "References": [
                            {
                                "Citations": [
                                    {
                                        "Document": "IG v3.4",
                                        "Section": "4.2.3",
                                        "Cited_Guidance": "The unique subject identifier (USUBJID) is required in all datasets containing subject-level data. USUBJID values must be unique for each trial participant (subject) across all trials in the submission."
                                    }
                                ],
                                "Origin": "SDTM and SDTMIG Conformance Rules",
                                "Version": "2.0",
                                "Rule_Identifier": {
                                    "Id": "CG0029",
                                    "Version": "1"
                                }
                            }
                        ],
                        "Version": "3.4"
                    },
                    {
                        "Name": "SDTMIG",
                        "References": [
                            {
                                "Citations": [
                                    {
                                        "Document": "IG v3.3",
                                        "Section": "4.2.3",
                                        "Cited_Guidance": "The unique subject identifier (USUBJID) is required in all datasets containing subject-level data. USUBJID values must be unique for each trial participant (subject) across all trials in the submission."
                                    }
                                ],
                                "Origin": "SDTM and SDTMIG Conformance Rules",
                                "Version": "2.0",
                                "Rule_Identifier": {
                                    "Id": "CG0029",
                                    "Version": "1"
                                }
                            }
                        ],
                        "Version": "3.3"
                    },
                    {
                        "Name": "SDTMIG",
                        "References": [
                            {
                                "Citations": [
                                    {
                                        "Document": "IG v3.2",
                                        "Section": "4.1.2.3",
                                        "Cited_Guidance": "... a unique identifier (USUBJID) should be assigned and included in all datasets. The unique subject identifier (USUBJID) is required in all datasets containing subject-level data."
                                    }
                                ],
                                "Origin": "SDTM and SDTMIG Conformance Rules",
                                "Version": "2.0",
                                "Rule_Identifier": {
                                    "Id": "CG0029",
                                    "Version": "1"
                                }
                            }
                        ],
                        "Version": "3.2"
                    },
                    {
                        "Name": "TIG",
                        "References": [
                            {
                                "Citations": [
                                    {
                                        "Document": "TIG 1.0",
                                        "Item": "Specification- USUBJID",
                                        "Section": "2.8.10.4",
                                        "Cited_Guidance": "Identifier used to uniquely identify a subject across all studies for all applications or submissions involving the product. This must be a unique value, and could be a compound identifier formed by concatenating STUDYID-SITEID-SUBJID."
                                    }
                                ],
                                "Origin": "TIG Conformance Rules",
                                "Version": "1.0",
                                "Rule_Identifier": {
                                    "Id": "TIG0311",
                                    "Version": "1"
                                }
                            }
                        ],
                        "Substandard": "SDTM",
                        "Version": "1.0"
                    },
                    {
                        "Name": "SENDIG",
                        "References": [
                            {
                                "Citations": [
                                    {
                                        "Document": "SENDIG v3.0",
                                        "Item": "Assumption 1",
                                        "Section": "5.1.1.1",
                                        "Cited_Guidance": "To identify a subject uniquely across a submission, a unique identifier (USUBJID) should be assigned and included in all subject-related datasets in the submission."
                                    }
                                ],
                                "Origin": "SEND Conformance Rules",
                                "Version": "5.0",
                                "Rule_Identifier": {
                                    "Id": "SEND109",
                                    "Version": "1"
                                }
                            }
                        ],
                        "Version": "3.0"
                    },
                    {
                        "Name": "SENDIG",
                        "References": [
                            {
                                "Citations": [
                                    {
                                        "Document": "SENDIG v3.1",
                                        "Item": "Assumption 1",
                                        "Section": "5.1.1.1",
                                        "Cited_Guidance": "To identify a subject uniquely across a submission, a unique identifier (USUBJID) should be assigned and included in all subject-related datasets in the submission."
                                    }
                                ],
                                "Origin": "SEND Conformance Rules",
                                "Version": "5.0",
                                "Rule_Identifier": {
                                    "Id": "SEND109",
                                    "Version": "1"
                                }
                            }
                        ],
                        "Version": "3.1"
                    },
                    {
                        "Name": "SENDIG",
                        "References": [
                            {
                                "Citations": [
                                    {
                                        "Document": "SENDIG v3.1.1",
                                        "Item": "Assumption 1",
                                        "Section": "5.1.1.1",
                                        "Cited_Guidance": "To identify a subject uniquely across a submission, a unique identifier (USUBJID) should be assigned and included in all subject-related datasets in the submission."
                                    }
                                ],
                                "Origin": "SEND Conformance Rules",
                                "Version": "5.0",
                                "Rule_Identifier": {
                                    "Id": "SEND109",
                                    "Version": "1"
                                }
                            }
                        ],
                        "Version": "3.1.1"
                    },
                    {
                        "Name": "SENDIG-DART",
                        "References": [
                            {
                                "Citations": [
                                    {
                                        "Document": "SENDIG v3.1",
                                        "Item": "Assumption 1",
                                        "Section": "5.1.1.1",
                                        "Cited_Guidance": "To identify a subject uniquely across a submission, a unique identifier (USUBJID) should be assigned and included in all subject-related datasets in the submission."
                                    }
                                ],
                                "Origin": "SEND Conformance Rules",
                                "Version": "5.0",
                                "Rule_Identifier": {
                                    "Id": "SEND109",
                                    "Version": "1"
                                }
                            }
                        ],
                        "Version": "1.1"
                    },
                    {
                        "Name": "SENDIG-DART",
                        "References": [
                            {
                                "Citations": [
                                    {
                                        "Document": "SENDIG v3.1.1",
                                        "Item": "Assumption 1",
                                        "Section": "5.5.5.1",
                                        "Cited_Guidance": "To identify a subject uniquely across a submission, a unique identifier (USUBJID) should be assigned and included in all subject-related datasets in the submission."
                                    }
                                ],
                                "Origin": "SEND Conformance Rules",
                                "Version": "5.0",
                                "Rule_Identifier": {
                                    "Id": "SEND109",
                                    "Version": "1"
                                }
                            }
                        ],
                        "Version": "1.2"
                    },
                    {
                        "Name": "SENDIG-GENETOX",
                        "References": [
                            {
                                "Citations": [
                                    {
                                        "Document": "SENDIG v3.1.1",
                                        "Item": "Assumption 1",
                                        "Section": "5.1.1.1",
                                        "Cited_Guidance": "To identify a subject uniquely across a submission, a unique identifier (USUBJID) should be assigned and included in all subject-related datasets in the submission."
                                    }
                                ],
                                "Origin": "SEND Conformance Rules",
                                "Version": "5.0",
                                "Rule_Identifier": {
                                    "Id": "SEND109",
                                    "Version": "1"
                                }
                            }
                        ],
                        "Version": "1.0"
                    },
                    {
                        "Name": "TIG",
                        "References": [
                            {
                                "Citations": [
                                    {
                                        "Document": "TIG 1.0",
                                        "Item": "USUBJID CDISC Notes",
                                        "Section": "2.8.9.6 SEND Demographics (DM)",
                                        "Cited_Guidance": "Identifier used to uniquely identify a subject across all studies for all applications or submissions involving the product."
                                    }
                                ],
                                "Origin": "TIG Conformance Rules",
                                "Version": "1.0",
                                "Rule_Identifier": {
                                    "Id": "TIG0046",
                                    "Version": "1"
                                }
                            }
                        ],
                        "Substandard": "SEND",
                        "Version": "1.0"
                    }
                ]
            }
        ],
        "Check": {
            "all": [
                {
                    "name": "USUBJID",
                    "operator": "non_empty"
                },
                {
                    "name": "USUBJID",
                    "operator": "is_not_contained_by",
                    "value": "$dm_usubjid"
                }
            ]
        },
        "Core": {
            "Id": "CORE-000201",
            "Status": "Published",
            "Version": "1"
        },
        "Description": "Trigger error when domain is not an AP-- domain and USUBJID is not present in DM.USUBJID",
        "Executability": "Fully Executable",
        "Operations": [
            {
                "domain": "DM",
                "id": "$dm_usubjid",
                "name": "USUBJID",
                "operator": "distinct"
            }
        ],
        "Outcome": {
            "Message": "USUBJID is not found in DM.USUBJID"
        },
        "Scope": {
            "Classes": {
                "Include": [
                    "ALL"
                ]
            },
            "Domains": {
                "Exclude": [
                    "AP"
                ]
            },
            "Use_Case": "NONCLIN, INDH"
        },
        "Sensitivity": "Record",
        "Rule_Type": "Record Data"
    },
    "datasets": [
        {
            "filename": "ae.xpt",
            "label": "Adverse Events",
            "domain": "AE",
            "variables": [
                {
                    "name": "STUDYID",
                    "label": "Study Identifier",
                    "type": "Char",
                    "length": 50
                },
                {
                    "name": "DOMAIN",
                    "label": "Domain Abbreviation",
                    "type": "Char",
                    "length": 50
                },
                {
                    "name": "USUBJID",
                    "label": "Unique Subject Identifier",
                    "type": "Char",
                    "length": 50
                },
                {
                    "name": "AESEQ",
                    "label": "Sequence Number",
                    "type": "Num",
                    "length": 8
                },
                {
                    "name": "AETERM",
                    "label": "Reported Term for the Adverse Event",
                    "type": "Char",
                    "length": 50
                },
                {
                    "name": "AEMODIFY",
                    "label": "Modified Reported Term",
                    "type": "Char",
                    "length": 50
                },
                {
                    "name": "AEDECOD",
                    "label": "Dictionary-Derived Term",
                    "type": "Char",
                    "length": 50
                },
                {
                    "name": "AEBODSYS",
                    "label": "Body System or Organ Class",
                    "type": "Char",
                    "length": 50
                },
                {
                    "name": "AESEV",
                    "label": "Severity/Intensity",
                    "type": "Char",
                    "length": 50
                },
                {
                    "name": "AESER",
                    "label": "Serious Event",
                    "type": "Char",
                    "length": 50
                },
                {
                    "name": "AEACN",
                    "label": "Action Taken with Study Treatment",
                    "type": "Char",
                    "length": 50
                },
                {
                    "name": "AEREL",
                    "label": "Causality",
                    "type": "Char",
                    "length": 50
                },
                {
                    "name": "AEOUT",
                    "label": "Outcome of Adverse Event",
                    "type": "Char",
                    "length": 50
                },
                {
                    "name": "AESCONG",
                    "label": "Congenital Anomaly or Birth Defect",
                    "type": "Char",
                    "length": 50
                },
                {
                    "name": "AESDISAB",
                    "label": "Persist or Signif Disability/Incapacity",
                    "type": "Char",
                    "length": 50
                },
                {
                    "name": "AESDTH",
                    "label": "Results in Death",
                    "type": "Char",
                    "length": 50
                },
                {
                    "name": "AESHOSP",
                    "label": "Requires or Prolongs Hospitalization",
                    "type": "Char",
                    "length": 50
                },
                {
                    "name": "AESLIFE",
                    "label": "Is Life Threatening",
                    "type": "Char",
                    "length": 50
                },
                {
                    "name": "EPOCH",
                    "label": "Epoch",
                    "type": "Char",
                    "length": 50
                },
                {
                    "name": "AESTDTC",
                    "label": "Start Date/Time of Adverse Event",
                    "type": "Char",
                    "length": 50
                },
                {
                    "name": "AEENDTC",
                    "label": "End Date/Time of Adverse Event",
                    "type": "Char",
                    "length": 50
                },
                {
                    "name": "AESTDY",
                    "label": "Study Day of Start of Adverse Event",
                    "type": "Num",
                    "length": 8
                },
                {
                    "name": "AEENDY",
                    "label": "Study Day of End of Adverse Event",
                    "type": "Num",
                    "length": 8
                },
                {
                    "name": "AEENRF",
                    "label": "End Relative to Reference Period",
                    "type": "Char",
                    "length": 50
                }
            ],
            "records": {
                "STUDYID": [
                    "ABC123",
                    "ABC123",
                    "ABC123"
                ],
                "DOMAIN": [
                    "AE",
                    "AE",
                    "AE"
                ],
                "USUBJID": [
                    "CDISC-TEST-001",
                    "CDISC-TEST-002",
                    "CDISC-TEST-003"
                ],
                "AESEQ": [
                    1,
                    2,
                    3
                ],
                "AETERM": [
                    "POUNDING HEADACHE",
                    "BACK PAIN FOR 6 HOURS",
                    "PULMONARY EMBOLISM"
                ],
                "AEMODIFY": [
                    "HEADACHE",
                    "BACK PAIN",
                    ""
                ],
                "AEDECOD": [
                    "Headache",
                    "Back pain",
                    "Pulmonary embolism"
                ],
                "AEBODSYS": [
                    "Nervous system disorders",
                    "Musculoskeletal and connective tissue disorders",
                    "Vascular disorders"
                ],
                "AESEV": [
                    "SEVERE",
                    "MODERATE",
                    "MODERATE"
                ],
                "AESER": [
                    "N",
                    "N",
                    "Y"
                ],
                "AEACN": [
                    "NOT APPLICABLE",
                    "DOSE REDUCED",
                    "DOSE REDUCED"
                ],
                "AEREL": [
                    "DEFINITELY NOT RELATED",
                    "PROBABLY RELATED",
                    "PROBABLY NOT RELATED"
                ],
                "AEOUT": [
                    "RECOVERED/RESOLVED",
                    "RECOVERED/RESOLVED",
                    "RECOVERING/RESOLVING"
                ],
                "AESCONG": [
                    "",
                    "",
                    ""
                ],
                "AESDISAB": [
                    "",
                    "",
                    ""
                ],
                "AESDTH": [
                    "",
                    "",
                    ""
                ],
                "AESHOSP": [
                    "",
                    "",
                    "Y"
                ],
                "AESLIFE": [
                    "",
                    "",
                    "Y"
                ],
                "EPOCH": [
                    "SCREENING",
                    "TREATMENT",
                    "TREATMENT"
                ],
                "AESTDTC": [
                    "2005-10-12",
                    "2005-10-13T13:05",
                    "2005-10-21"
                ],
                "AEENDTC": [
                    "2005-10-12",
                    "2005-10-13T19:00",
                    ""
                ],
                "AESTDY": [
                    -1,
                    1,
                    9
                ],
                "AEENDY": [
                    -1,
                    1,
                    null
                ],
                "AEENRF": [
                    "",
                    "",
                    "AFTER"
                ]
            }
        },
        {
            "filename": "dm.xpt",
            "label": "Demographics",
            "domain": "DM",
            "variables": [
                {
                    "name": "STUDYID",
                    "label": "Study Identifier",
                    "type": "Char",
                    "length": 10
                },
                {
                    "name": "DOMAIN",
                    "label": "Domain Abbreviation",
                    "type": "Char",
                    "length": 2
                },
                {
                    "name": "USUBJID",
                    "label": "Unique Subject Identifier",
                    "type": "Char",
                    "length": 14
                },
                {
                    "name": "SUBJID",
                    "label": "Subject Identifier for the Study",
                    "type": "Char",
                    "length": 3
                },
                {
                    "name": "RFSTDTC",
                    "label": "Subject Reference Start Date/Time",
                    "type": "Char",
                    "length": 10
                },
                {
                    "name": "RFENDTC",
                    "label": "Subject Reference End Date/Time",
                    "type": "Char",
                    "length": 10
                },
                {
                    "name": "RFXSTDTC",
                    "label": "Date/Time of First Study Treatment",
                    "type": "Char",
                    "length": 10
                },
                {
                    "name": "RFXENDTC",
                    "label": "Date/Time of Last Study Treatment",
                    "type": "Char",
                    "length": 10
                },
                {
                    "name": "RFICDTC",
                    "label": "Date/Time of Informed Consent",
                    "type": "Char",
                    "length": 10
                },
                {
                    "name": "RFPENDTC",
                    "label": "Date/Time of End of Participation",
                    "type": "Char",
                    "length": 10
                },
                {
                    "name": "DTHDTC",
                    "label": "Date/Time of Death",
                    "type": "Char",
                    "length": 1
                },
                {
                    "name": "DTHFL",
                    "label": "Subject Death Flag",
                    "type": "Char",
                    "length": 1
                },
                {
                    "name": "SITEID",
                    "label": "Study Site Identifier",
                    "type": "Char",
                    "length": 3
                },
                {
                    "name": "AGE",
                    "label": "Age",
                    "type": "Num",
                    "length": 8
                },
                {
                    "name": "AGEU",
                    "label": "Age Units",
                    "type": "Char",
                    "length": 5
                },
                {
                    "name": "SEX",
                    "label": "Sex",
                    "type": "Char",
                    "length": 1
                },
                {
                    "name": "RACE",
                    "label": "Race",
                    "type": "Char",
                    "length": 1
                },
                {
                    "name": "ARMCD",
                    "label": "Planned Arm Code",
                    "type": "Char",
                    "length": 1
                },
                {
                    "name": "ARM",
                    "label": "Description of Planned Arm",
                    "type": "Char",
                    "length": 13
                },
                {
                    "name": "ACTARMCD",
                    "label": "Actual Arm Code",
                    "type": "Char",
                    "length": 1
                },
                {
                    "name": "ACTARM",
                    "label": "Description of Actual Arm",
                    "type": "Char",
                    "length": 13
                },
                {
                    "name": "COUNTRY",
                    "label": "Country",
                    "type": "Char",
                    "length": 3
                }
            ],
            "records": {
                "STUDYID": [
                    "CDISC-TEST",
                    "CDISC-TEST",
                    "CDISC-TEST",
                    "CDISC-TEST"
                ],
                "DOMAIN": [
                    "DM",
                    "DM",
                    "DM",
                    "DM"
                ],
                "USUBJID": [
                    "CDISC-TEST-001",
                    "CDISC-TEST-002",
                    "CDISC-TEST-003",
                    "CDISC-TEST-004"
                ],
                "SUBJID": [
                    "001",
                    "002",
                    "003",
                    "004"
                ],
                "RFSTDTC": [
                    "2019-03-12",
                    "2019-01-30",
                    "2019-01-26",
                    "2019-02-16"
                ],
                "RFENDTC": [
                    "2019-09-10",
                    "2019-07-31",
                    "2019-07-27",
                    "2019-08-17"
                ],
                "RFXSTDTC": [
                    "2019-03-12",
                    "2019-01-30",
                    "2019-01-26",
                    "2019-02-16"
                ],
                "RFXENDTC": [
                    "2019-09-10",
                    "2019-07-31",
                    "2019-07-27",
                    "2019-08-17"
                ],
                "RFICDTC": [
                    "2019-02-25",
                    "2019-01-15",
                    "2019-01-11",
                    "2019-02-01"
                ],
                "RFPENDTC": [
                    "2019-10-10",
                    "2019-08-30",
                    "2019-08-26",
                    "2019-09-16"
                ],
                "DTHDTC": [
                    "",
                    "",
                    "",
                    ""
                ],
                "DTHFL": [
                    "",
                    "",
                    "",
                    ""
                ],
                "SITEID": [
                    "102",
                    "103",
                    "102",
                    "102"
                ],
                "AGE": [
                    26,
                    34,
                    57,
                    31
                ],
                "AGEU": [
                    "YEARS",
                    "YEARS",
                    "YEARS",
                    "YEARS"
                ],
                "SEX": [
                    "F",
                    "M",
                    "F",
                    "F"
                ],
                "RACE": [
                    "",
                    "",
                    "",
                    ""
                ],
                "ARMCD": [
                    "A",
                    "A",
                    "B",
                    "A"
                ],
                "ARM": [
                    "HUMAN INSULIN",
                    "HUMAN INSULIN",
                    "METFORMIN",
                    "HUMAN INSULIN"
                ],
                "ACTARMCD": [
                    "A",
                    "A",
                    "B",
                    "A"
                ],
                "ACTARM": [
                    "HUMAN INSULIN",
                    "HUMAN INSULIN",
                    "METFORMIN",
                    "HUMAN INSULIN"
                ],
                "COUNTRY": [
                    "FRA",
                    "JPN",
                    "FRA",
                    "FRA"
                ]
            }
        }
    ],
    "codelists": []
}