<?xml version="1.0" encoding="UTF-8"?>
<?xml-stylesheet type="text/xsl" href="define2-1.xsl"?>
<!-- ********************************************************************************* -->
<!-- File: defineV21-MSGv2.xml                                                          -->
<!-- Author: CDISC MSG v2 Team                                                         -->
<!-- Description: This is a draft define.xml V2.1.0 document based on the define.xml   -->
<!--    Metadata provided by the MSG v2 Team                                           -->
<!--    plus adjustments to comply with the Define-XML Specification Version 2.1.0     -->
<!-- Release Note(s):                                                                  -->
<!--  1. The resulting HTML presentation and the availability and usability of         -->
<!--      functions will vary depending upon which browser application used.           -->
<!-- ********************************************************************************* -->


<ODM 
  xmlns="http://www.cdisc.org/ns/odm/v1.3" 
  xmlns:xlink="http://www.w3.org/1999/xlink"
  xmlns:def="http://www.cdisc.org/ns/def/v2.1"

  ODMVersion="1.3.2"
  FileOID="www.cdisc.org/StudyMSGv2/1/Define-XML_2.1.0"
  FileType="Snapshot"
  CreationDateTime="2021-01-24T16:59:33"
  Originator="CDISC MSG Team"
  SourceSystem="M.Hungria-System"
  SourceSystemVersion="2.1-A1"
  def:Context="Submission"
  >


  <!-- ******************************************  -->
  <!-- OID conventions used in this example:       -->
  <!--    Study                   = STDY.          -->
  <!--    MetaDataVersion         = MDV.           -->
  <!--    def:Standard            = STD.           -->
  <!--    def:ValueListDef        = VL.            -->
  <!--    def:WhereClauseDef      = WC.            -->
  <!--    ItemGroupDef            = IG.            -->
  <!--    ItemDef                 = IT.            -->
  <!--    CodeList                = CL.            -->
  <!--    MethodDef               = MT.            -->
  <!--    def:CommentDef          = COM.           -->
  <!--    def:leaf, leafID        = LF.            -->
  <!-- ******************************************  -->
  
<Study OID="cdisc.com/CDISCPILOT01">
  <GlobalVariables>
    <StudyName>CDISCPILOT01</StudyName>
    <StudyDescription>Study Data Tabulation Model Metadata Submission Guidelines Sample Study</StudyDescription>
    <ProtocolName>CDISCPILOT01</ProtocolName>
  </GlobalVariables>
  <MetaDataVersion OID="MDV.MSGv2.0.SDTMIG.3.3.SDTM.1.7"
    Name="Data Definitions for MSGv2.0 SDTM datasets."
    Description="This metadata version contains only a subset of SDTM domains available in the SDTMIG 3.3. The data contained do not represent the data which would appear together in an actual regulatory submission."
    def:DefineVersion="2.1.0"
    def:CommentOID="COM.MDV">

      <!-- ************************************************************************** -->
      <!-- Standard Definitions                                                       -->
      <!-- ************************************************************************** -->

  <def:Standards>
      <def:Standard OID="STD.1" Name="SDTMIG" Type="IG" Version="3.3" Status="Final" def:CommentOID="COM.ST1"/>
      <def:Standard OID="STD.2_1" Name="SDTMIG-MD" Type="IG" Version="1.1" Status="Final" def:CommentOID="COM.ST2"/>
      <def:Standard OID="STD.4" Name="CDISC/NCI" Type="CT" PublishingSet="DEFINE-XML" Version="2020-12-18" Status="Final" def:CommentOID="COM.ST4"/>
      <def:Standard OID="STD.3" Name="CDISC/NCI" Type="CT" PublishingSet="SDTM" Version="2020-12-18" Status="Final" def:CommentOID="COM.ST3"/>
  </def:Standards>

      <!-- ************************************************************************** -->
      <!-- Supporting Documents                                                       -->
      <!-- ************************************************************************** -->

      <def:SupplementalDoc>
        <def:DocumentRef leafID="LF.csdrg"/>
      </def:SupplementalDoc>

      <!-- ************************************************************************************************************************ -->
      <!-- Value List Definitions Section (Required for Supplemental Qualifiers, Optional for other Normalized (Vertical) Datasets) -->
      <!--       (Note that any definitions not provided at a Value Level will be inherited from the parent item definition)        -->
      <!-- ************************************************************************************************************************ -->

      <def:ValueListDef OID="VL.AETERM">
        <ItemRef ItemOID="IT.AE.AETERM.1" OrderNumber="1" Mandatory="Yes">
          <def:WhereClauseRef WhereClauseOID="WC.AETERM1"/>
        </ItemRef>
        <ItemRef ItemOID="IT.AE.AETERM.2" OrderNumber="2" Mandatory="Yes">
          <def:WhereClauseRef WhereClauseOID="WC.AETERM2"/>
        </ItemRef>
      </def:ValueListDef>
      <def:ValueListDef OID="VL.DSDECOD">
        <ItemRef ItemOID="IT.DS.DSDECOD.3" OrderNumber="1" Mandatory="No">
          <def:WhereClauseRef WhereClauseOID="WC.DSDECOD1"/>
        </ItemRef>
        <ItemRef ItemOID="IT.DS.DSDECOD.4" OrderNumber="2" Mandatory="No">
          <def:WhereClauseRef WhereClauseOID="WC.DSDECOD2"/>
        </ItemRef>
      </def:ValueListDef>
      <def:ValueListDef OID="VL.DSTERM">
        <ItemRef ItemOID="IT.DS.DSTERM.1" OrderNumber="1" Mandatory="No">
          <def:WhereClauseRef WhereClauseOID="WC.DSTERM1"/>
        </ItemRef>
        <ItemRef ItemOID="IT.DS.DSTERM.2" OrderNumber="2" Mandatory="No">
          <def:WhereClauseRef WhereClauseOID="WC.DSTERM2"/>
        </ItemRef>
      </def:ValueListDef>
      <def:ValueListDef OID="VL.FAORRES">
        <ItemRef ItemOID="IT.FA.FAORRES.1" OrderNumber="1" Mandatory="No">
          <def:WhereClauseRef WhereClauseOID="WC.FASEV"/>
        </ItemRef>
        <ItemRef ItemOID="IT.FA.FAORRES.2" OrderNumber="2" Mandatory="No">
          <def:WhereClauseRef WhereClauseOID="WC.FAOCCUR"/>
        </ItemRef>
      </def:ValueListDef>
      <def:ValueListDef OID="VL.FASTRESC">
        <ItemRef ItemOID="IT.FA.FASTRESC.1" OrderNumber="1" Mandatory="No">
          <def:WhereClauseRef WhereClauseOID="WC.FASEV"/>
        </ItemRef>
        <ItemRef ItemOID="IT.FA.FASTRESC.2" OrderNumber="2" Mandatory="No">
          <def:WhereClauseRef WhereClauseOID="WC.FAOCCUR"/>
        </ItemRef>
      </def:ValueListDef>
      <def:ValueListDef OID="VL.FTORRES">
        <ItemRef ItemOID="IT.FT.FTORRES.1" OrderNumber="1" Mandatory="No">
          <def:WhereClauseRef WhereClauseOID="WC.AVL0201-15"/>
        </ItemRef>
        <ItemRef ItemOID="IT.FT.FTORRES.2" OrderNumber="2" Mandatory="No">
          <def:WhereClauseRef WhereClauseOID="WC.AVL0216-17"/>
        </ItemRef>
        <ItemRef ItemOID="IT.FT.FTORRES.3" OrderNumber="3" Mandatory="No">
          <def:WhereClauseRef WhereClauseOID="WC.AVL0218-32"/>
        </ItemRef>
        <ItemRef ItemOID="IT.FT.FTORRES.4" OrderNumber="4" Mandatory="No">
          <def:WhereClauseRef WhereClauseOID="WC.AVL0233-34"/>
        </ItemRef>
      </def:ValueListDef>
      <def:ValueListDef OID="VL.LBORRES">
        <ItemRef ItemOID="IT.LB.LBORRES.1" OrderNumber="1" Mandatory="No">
          <def:WhereClauseRef WhereClauseOID="WC.LB_ORRES_SET1"/>
        </ItemRef>
        <ItemRef ItemOID="IT.LB.LBORRES.2" OrderNumber="2" Mandatory="No">
          <def:WhereClauseRef WhereClauseOID="WC.LB_ORRES_SET2"/>
        </ItemRef>
        <ItemRef ItemOID="IT.LB.LBORRES.3" OrderNumber="3" Mandatory="No">
          <def:WhereClauseRef WhereClauseOID="WC.LB_ORRES_SET3"/>
        </ItemRef>
        <ItemRef ItemOID="IT.LB.LBORRES.4" OrderNumber="4" Mandatory="No">
          <def:WhereClauseRef WhereClauseOID="WC.LB_ORRES_SPGRAV"/>
        </ItemRef>
        <ItemRef ItemOID="IT.LB.LBORRES.5" OrderNumber="5" Mandatory="No">
          <def:WhereClauseRef WhereClauseOID="WC.LB_ORRES_SET4"/>
        </ItemRef>
        <ItemRef ItemOID="IT.LB.LBORRES.6" OrderNumber="6" Mandatory="No">
          <def:WhereClauseRef WhereClauseOID="WC.LB_ORRES_SET5"/>
        </ItemRef>
        <ItemRef ItemOID="IT.LB.LBORRES.7" OrderNumber="7" Mandatory="No">
          <def:WhereClauseRef WhereClauseOID="WC.LB_ORRES_SET6"/>
        </ItemRef>
        <ItemRef ItemOID="IT.LB.LBORRES.8" OrderNumber="8" Mandatory="No">
          <def:WhereClauseRef WhereClauseOID="WC.LB_ORRES_COLOR"/>
        </ItemRef>
        <ItemRef ItemOID="IT.LB.LBORRES.9" OrderNumber="9" Mandatory="No">
          <def:WhereClauseRef WhereClauseOID="WC.LB_ORRES_GLUC"/>
        </ItemRef>
      </def:ValueListDef>
      <def:ValueListDef OID="VL.LBORRESU">
        <ItemRef ItemOID="IT.LB.LBORRESU.1" OrderNumber="1" Mandatory="No">
          <def:WhereClauseRef WhereClauseOID="WC.LB_ORRESU_UNITS_ALT"/>
        </ItemRef>
        <ItemRef ItemOID="IT.LB.LBORRESU.2" OrderNumber="2" Mandatory="No">
          <def:WhereClauseRef WhereClauseOID="WC.LB_ORRESU_UNITS_ALB"/>
        </ItemRef>
        <ItemRef ItemOID="IT.LB.LBORRESU.3" OrderNumber="3" Mandatory="No">
          <def:WhereClauseRef WhereClauseOID="WC.LB_ORRESU_UNITS_ALP"/>
        </ItemRef>
        <ItemRef ItemOID="IT.LB.LBORRESU.4" OrderNumber="4" Mandatory="No">
          <def:WhereClauseRef WhereClauseOID="WC.LB_ORRESU_UNITS_AST"/>
        </ItemRef>
        <ItemRef ItemOID="IT.LB.LBORRESU.5" OrderNumber="5" Mandatory="No">
          <def:WhereClauseRef WhereClauseOID="WC.LB_ORRESU_UNITS_BASO"/>
        </ItemRef>
        <ItemRef ItemOID="IT.LB.LBORRESU.6" OrderNumber="6" Mandatory="No">
          <def:WhereClauseRef WhereClauseOID="WC.LB_ORRESU_UNITS_BILI"/>
        </ItemRef>
        <ItemRef ItemOID="IT.LB.LBORRESU.7" OrderNumber="7" Mandatory="No">
          <def:WhereClauseRef WhereClauseOID="WC.LB_ORRESU_UNITS_CA"/>
        </ItemRef>
        <ItemRef ItemOID="IT.LB.LBORRESU.8" OrderNumber="8" Mandatory="No">
          <def:WhereClauseRef WhereClauseOID="WC.LB_ORRESU_UNITS_CL"/>
        </ItemRef>
        <ItemRef ItemOID="IT.LB.LBORRESU.9" OrderNumber="9" Mandatory="No">
          <def:WhereClauseRef WhereClauseOID="WC.LB_ORRESU_UNITS_CHOL"/>
        </ItemRef>
        <ItemRef ItemOID="IT.LB.LBORRESU.10" OrderNumber="10" Mandatory="No">
          <def:WhereClauseRef WhereClauseOID="WC.LB_ORRESU_UNITS_CK"/>
        </ItemRef>
        <ItemRef ItemOID="IT.LB.LBORRESU.11" OrderNumber="11" Mandatory="No">
          <def:WhereClauseRef WhereClauseOID="WC.LB_ORRESU_UNITS_CREAT"/>
        </ItemRef>
        <ItemRef ItemOID="IT.LB.LBORRESU.12" OrderNumber="12" Mandatory="No">
          <def:WhereClauseRef WhereClauseOID="WC.LB_ORRESU_UNITS_EOS"/>
        </ItemRef>
        <ItemRef ItemOID="IT.LB.LBORRESU.13" OrderNumber="13" Mandatory="No">
          <def:WhereClauseRef WhereClauseOID="WC.LB_ORRESU_UNITS_MCH"/>
        </ItemRef>
        <ItemRef ItemOID="IT.LB.LBORRESU.14" OrderNumber="14" Mandatory="No">
          <def:WhereClauseRef WhereClauseOID="WC.LB_ORRESU_UNITS_MCHC"/>
        </ItemRef>
        <ItemRef ItemOID="IT.LB.LBORRESU.15" OrderNumber="15" Mandatory="No">
          <def:WhereClauseRef WhereClauseOID="WC.LB_ORRESU_UNITS_MCV"/>
        </ItemRef>
        <ItemRef ItemOID="IT.LB.LBORRESU.16" OrderNumber="16" Mandatory="No">
          <def:WhereClauseRef WhereClauseOID="WC.LB_ORRESU_UNITS_RBC"/>
        </ItemRef>
        <ItemRef ItemOID="IT.LB.LBORRESU.17" OrderNumber="17" Mandatory="No">
          <def:WhereClauseRef WhereClauseOID="WC.LB_ORRESU_UNITS_GGT"/>
        </ItemRef>
        <ItemRef ItemOID="IT.LB.LBORRESU.18" OrderNumber="18" Mandatory="No">
          <def:WhereClauseRef WhereClauseOID="WC.LB_ORRESU_UNITS_GLUC"/>
        </ItemRef>
        <ItemRef ItemOID="IT.LB.LBORRESU.19" OrderNumber="19" Mandatory="No">
          <def:WhereClauseRef WhereClauseOID="WC.LB_ORRESU_UNITS_HCT"/>
        </ItemRef>
        <ItemRef ItemOID="IT.LB.LBORRESU.20" OrderNumber="20" Mandatory="No">
          <def:WhereClauseRef WhereClauseOID="WC.LB_ORRESU_UNITS_HGB"/>
        </ItemRef>
        <ItemRef ItemOID="IT.LB.LBORRESU.21" OrderNumber="21" Mandatory="No">
          <def:WhereClauseRef WhereClauseOID="WC.LB_ORRESU_UNITS_WBC"/>
        </ItemRef>
        <ItemRef ItemOID="IT.LB.LBORRESU.22" OrderNumber="22" Mandatory="No">
          <def:WhereClauseRef WhereClauseOID="WC.LB_ORRESU_UNITS_LYM"/>
        </ItemRef>
        <ItemRef ItemOID="IT.LB.LBORRESU.23" OrderNumber="23" Mandatory="No">
          <def:WhereClauseRef WhereClauseOID="WC.LB_ORRESU_UNITS_MONO"/>
        </ItemRef>
        <ItemRef ItemOID="IT.LB.LBORRESU.24" OrderNumber="24" Mandatory="No">
          <def:WhereClauseRef WhereClauseOID="WC.LB_ORRESU_UNITS_PHOS"/>
        </ItemRef>
        <ItemRef ItemOID="IT.LB.LBORRESU.25" OrderNumber="25" Mandatory="No">
          <def:WhereClauseRef WhereClauseOID="WC.LB_ORRESU_UNITS_PLAT"/>
        </ItemRef>
        <ItemRef ItemOID="IT.LB.LBORRESU.26" OrderNumber="26" Mandatory="No">
          <def:WhereClauseRef WhereClauseOID="WC.LB_ORRESU_UNITS_K"/>
        </ItemRef>
        <ItemRef ItemOID="IT.LB.LBORRESU.27" OrderNumber="27" Mandatory="No">
          <def:WhereClauseRef WhereClauseOID="WC.LB_ORRESU_UNITS_PROT"/>
        </ItemRef>
        <ItemRef ItemOID="IT.LB.LBORRESU.28" OrderNumber="28" Mandatory="No">
          <def:WhereClauseRef WhereClauseOID="WC.LB_ORRESU_UNITS_SODIUM"/>
        </ItemRef>
        <ItemRef ItemOID="IT.LB.LBORRESU.29" OrderNumber="29" Mandatory="No">
          <def:WhereClauseRef WhereClauseOID="WC.LB_ORRESU_UNITS_TSH"/>
        </ItemRef>
        <ItemRef ItemOID="IT.LB.LBORRESU.30" OrderNumber="30" Mandatory="No">
          <def:WhereClauseRef WhereClauseOID="WC.LB_ORRESU_UNITS_URATE"/>
        </ItemRef>
        <ItemRef ItemOID="IT.LB.LBORRESU.31" OrderNumber="31" Mandatory="No">
          <def:WhereClauseRef WhereClauseOID="WC.LB_ORRESU_UNITS_UREAN"/>
        </ItemRef>
        <ItemRef ItemOID="IT.LB.LBORRESU.32" OrderNumber="32" Mandatory="No">
          <def:WhereClauseRef WhereClauseOID="WC.LB_ORRESU_UNITS_VITB12"/>
        </ItemRef>
      </def:ValueListDef>
      <def:ValueListDef OID="VL.LBSTRESC">
        <ItemRef ItemOID="IT.LB.LBSTRESC.1" OrderNumber="1" Mandatory="No">
          <def:WhereClauseRef WhereClauseOID="WC.LB_STRESC_K"/>
        </ItemRef>
        <ItemRef ItemOID="IT.LB.LBSTRESC.2" OrderNumber="2" Mandatory="No">
          <def:WhereClauseRef WhereClauseOID="WC.LB_STRESC_RBC"/>
        </ItemRef>
        <ItemRef ItemOID="IT.LB.LBSTRESC.3" OrderNumber="3" Mandatory="No">
          <def:WhereClauseRef WhereClauseOID="WC.LB_STRESC_SET1"/>
        </ItemRef>
        <ItemRef ItemOID="IT.LB.LBSTRESC.4" OrderNumber="4" Mandatory="No">
          <def:WhereClauseRef WhereClauseOID="WC.LB_STRESC_BILI"/>
        </ItemRef>
        <ItemRef ItemOID="IT.LB.LBSTRESC.5" OrderNumber="5" Mandatory="No">
          <def:WhereClauseRef WhereClauseOID="WC.LB_STRESC_SET2"/>
        </ItemRef>
        <ItemRef ItemOID="IT.LB.LBSTRESC.6" OrderNumber="6" Mandatory="No">
          <def:WhereClauseRef WhereClauseOID="WC.LB_STRESC_CREAT"/>
        </ItemRef>
        <ItemRef ItemOID="IT.LB.LBSTRESC.7" OrderNumber="7" Mandatory="No">
          <def:WhereClauseRef WhereClauseOID="WC.LB_STRESC_URATE"/>
        </ItemRef>
        <ItemRef ItemOID="IT.LB.LBSTRESC.8" OrderNumber="8" Mandatory="No">
          <def:WhereClauseRef WhereClauseOID="WC.LB_STRESC_MCHC"/>
        </ItemRef>
        <ItemRef ItemOID="IT.LB.LBSTRESC.9" OrderNumber="9" Mandatory="No">
          <def:WhereClauseRef WhereClauseOID="WC.LB_STRESC_SET3"/>
        </ItemRef>
        <ItemRef ItemOID="IT.LB.LBSTRESC.10" OrderNumber="10" Mandatory="No">
          <def:WhereClauseRef WhereClauseOID="WC.LB_STRESC_VITB12"/>
        </ItemRef>
        <ItemRef ItemOID="IT.LB.LBSTRESC.11" OrderNumber="11" Mandatory="No">
          <def:WhereClauseRef WhereClauseOID="WC.LB_STRESC_HGB"/>
        </ItemRef>
        <ItemRef ItemOID="IT.LB.LBSTRESC.12" OrderNumber="12" Mandatory="No">
          <def:WhereClauseRef WhereClauseOID="WC.LB_STRESC_SET4"/>
        </ItemRef>
        <ItemRef ItemOID="IT.LB.LBSTRESC.13" OrderNumber="13" Mandatory="No">
          <def:WhereClauseRef WhereClauseOID="WC.LB_STRESC_SET5"/>
        </ItemRef>
        <ItemRef ItemOID="IT.LB.LBSTRESC.14" OrderNumber="14" Mandatory="No">
          <def:WhereClauseRef WhereClauseOID="WC.LB_STRESC_SET6"/>
        </ItemRef>
        <ItemRef ItemOID="IT.LB.LBSTRESC.15" OrderNumber="15" Mandatory="No">
          <def:WhereClauseRef WhereClauseOID="WC.LB_STRESC_CK"/>
        </ItemRef>
        <ItemRef ItemOID="IT.LB.LBSTRESC.16" OrderNumber="16" Mandatory="No">
          <def:WhereClauseRef WhereClauseOID="WC.LB_STRESC_COLOR"/>
        </ItemRef>
        <ItemRef ItemOID="IT.LB.LBSTRESC.17" OrderNumber="17" Mandatory="No">
          <def:WhereClauseRef WhereClauseOID="WC.LB_STRESC_GLUC"/>
        </ItemRef>
      </def:ValueListDef>
      <def:ValueListDef OID="VL.LBSTRESU">
        <ItemRef ItemOID="IT.LB.LBSTRESU.1" OrderNumber="1" Mandatory="No">
          <def:WhereClauseRef WhereClauseOID="WC.LB_STRESU_UNITS_ALT_STD"/>
        </ItemRef>
        <ItemRef ItemOID="IT.LB.LBSTRESU.2" OrderNumber="2" Mandatory="No">
          <def:WhereClauseRef WhereClauseOID="WC.LB_STRESU_UNITS_ALB_STD"/>
        </ItemRef>
        <ItemRef ItemOID="IT.LB.LBSTRESU.3" OrderNumber="3" Mandatory="No">
          <def:WhereClauseRef WhereClauseOID="WC.LB_STRESU_UNITS_ALP_STD"/>
        </ItemRef>
        <ItemRef ItemOID="IT.LB.LBSTRESU.4" OrderNumber="4" Mandatory="No">
          <def:WhereClauseRef WhereClauseOID="WC.LB_STRESU_UNITS_AST_STD"/>
        </ItemRef>
        <ItemRef ItemOID="IT.LB.LBSTRESU.5" OrderNumber="5" Mandatory="No">
          <def:WhereClauseRef WhereClauseOID="WC.LB_STRESU_UNITS_BASO_STD"/>
        </ItemRef>
        <ItemRef ItemOID="IT.LB.LBSTRESU.6" OrderNumber="6" Mandatory="No">
          <def:WhereClauseRef WhereClauseOID="WC.LB_STRESU_UNITS_BILI_STD"/>
        </ItemRef>
        <ItemRef ItemOID="IT.LB.LBSTRESU.7" OrderNumber="7" Mandatory="No">
          <def:WhereClauseRef WhereClauseOID="WC.LB_STRESU_UNITS_CA_STD"/>
        </ItemRef>
        <ItemRef ItemOID="IT.LB.LBSTRESU.8" OrderNumber="8" Mandatory="No">
          <def:WhereClauseRef WhereClauseOID="WC.LB_STRESU_UNITS_CL_STD"/>
        </ItemRef>
        <ItemRef ItemOID="IT.LB.LBSTRESU.9" OrderNumber="9" Mandatory="No">
          <def:WhereClauseRef WhereClauseOID="WC.LB_STRESU_UNITS_CHOL_STD"/>
        </ItemRef>
        <ItemRef ItemOID="IT.LB.LBSTRESU.10" OrderNumber="10" Mandatory="No">
          <def:WhereClauseRef WhereClauseOID="WC.LB_STRESU_UNITS_CK_STD"/>
        </ItemRef>
        <ItemRef ItemOID="IT.LB.LBSTRESU.11" OrderNumber="11" Mandatory="No">
          <def:WhereClauseRef WhereClauseOID="WC.LB_STRESU_UNITS_CREAT_STD"/>
        </ItemRef>
        <ItemRef ItemOID="IT.LB.LBSTRESU.12" OrderNumber="12" Mandatory="No">
          <def:WhereClauseRef WhereClauseOID="WC.LB_STRESU_UNITS_EOS_STD"/>
        </ItemRef>
        <ItemRef ItemOID="IT.LB.LBSTRESU.13" OrderNumber="13" Mandatory="No">
          <def:WhereClauseRef WhereClauseOID="WC.LB_STRESU_UNITS_MCH_STD"/>
        </ItemRef>
        <ItemRef ItemOID="IT.LB.LBSTRESU.14" OrderNumber="14" Mandatory="No">
          <def:WhereClauseRef WhereClauseOID="WC.LB_STRESU_UNITS_MCHC_STD"/>
        </ItemRef>
        <ItemRef ItemOID="IT.LB.LBSTRESU.15" OrderNumber="15" Mandatory="No">
          <def:WhereClauseRef WhereClauseOID="WC.LB_STRESU_UNITS_MCV_STD"/>
        </ItemRef>
        <ItemRef ItemOID="IT.LB.LBSTRESU.16" OrderNumber="16" Mandatory="No">
          <def:WhereClauseRef WhereClauseOID="WC.LB_STRESU_UNITS_RBC_STD"/>
        </ItemRef>
        <ItemRef ItemOID="IT.LB.LBSTRESU.17" OrderNumber="17" Mandatory="No">
          <def:WhereClauseRef WhereClauseOID="WC.LB_STRESU_UNITS_GGT_STD"/>
        </ItemRef>
        <ItemRef ItemOID="IT.LB.LBSTRESU.18" OrderNumber="18" Mandatory="No">
          <def:WhereClauseRef WhereClauseOID="WC.LB_STRESU_UNITS_GLUC_STD"/>
        </ItemRef>
        <ItemRef ItemOID="IT.LB.LBSTRESU.19" OrderNumber="19" Mandatory="No">
          <def:WhereClauseRef WhereClauseOID="WC.LB_STRESU_UNITS_HGB_STD"/>
        </ItemRef>
        <ItemRef ItemOID="IT.LB.LBSTRESU.20" OrderNumber="20" Mandatory="No">
          <def:WhereClauseRef WhereClauseOID="WC.LB_STRESU_UNITS_WBC_STD"/>
        </ItemRef>
        <ItemRef ItemOID="IT.LB.LBSTRESU.21" OrderNumber="21" Mandatory="No">
          <def:WhereClauseRef WhereClauseOID="WC.LB_STRESU_UNITS_LYM_STD"/>
        </ItemRef>
        <ItemRef ItemOID="IT.LB.LBSTRESU.22" OrderNumber="22" Mandatory="No">
          <def:WhereClauseRef WhereClauseOID="WC.LB_STRESU_UNITS_MONO_STD"/>
        </ItemRef>
        <ItemRef ItemOID="IT.LB.LBSTRESU.23" OrderNumber="23" Mandatory="No">
          <def:WhereClauseRef WhereClauseOID="WC.LB_STRESU_UNITS_PHOS_STD"/>
        </ItemRef>
        <ItemRef ItemOID="IT.LB.LBSTRESU.24" OrderNumber="24" Mandatory="No">
          <def:WhereClauseRef WhereClauseOID="WC.LB_STRESU_UNITS_PLAT_STD"/>
        </ItemRef>
        <ItemRef ItemOID="IT.LB.LBSTRESU.25" OrderNumber="25" Mandatory="No">
          <def:WhereClauseRef WhereClauseOID="WC.LB_STRESU_UNITS_K_STD"/>
        </ItemRef>
        <ItemRef ItemOID="IT.LB.LBSTRESU.26" OrderNumber="26" Mandatory="No">
          <def:WhereClauseRef WhereClauseOID="WC.LB_STRESU_UNITS_PROT_STD"/>
        </ItemRef>
        <ItemRef ItemOID="IT.LB.LBSTRESU.27" OrderNumber="27" Mandatory="No">
          <def:WhereClauseRef WhereClauseOID="WC.LB_STRESU_UNITS_SODIUM_STD"/>
        </ItemRef>
        <ItemRef ItemOID="IT.LB.LBSTRESU.28" OrderNumber="28" Mandatory="No">
          <def:WhereClauseRef WhereClauseOID="WC.LB_STRESU_UNITS_TSH_STD"/>
        </ItemRef>
        <ItemRef ItemOID="IT.LB.LBSTRESU.29" OrderNumber="29" Mandatory="No">
          <def:WhereClauseRef WhereClauseOID="WC.LB_STRESU_UNITS_URATE_STD"/>
        </ItemRef>
        <ItemRef ItemOID="IT.LB.LBSTRESU.30" OrderNumber="30" Mandatory="No">
          <def:WhereClauseRef WhereClauseOID="WC.LB_STRESU_UNITS_UREAN_STD"/>
        </ItemRef>
        <ItemRef ItemOID="IT.LB.LBSTRESU.31" OrderNumber="31" Mandatory="No">
          <def:WhereClauseRef WhereClauseOID="WC.LB_STRESU_UNITS_VITB12_STD"/>
        </ItemRef>
      </def:ValueListDef>
      <def:ValueListDef OID="VL.OEORRES">
        <ItemRef ItemOID="IT.OE.OEORRES.1" OrderNumber="1" Mandatory="No">
          <def:WhereClauseRef WhereClauseOID="WC.OEORRES1"/>
        </ItemRef>
        <ItemRef ItemOID="IT.OE.OEORRES.2" OrderNumber="2" Mandatory="No">
          <def:WhereClauseRef WhereClauseOID="WC.OEORRES2"/>
        </ItemRef>
      </def:ValueListDef>
      <def:ValueListDef OID="VL.QSORRES_PHQ">
        <ItemRef ItemOID="IT.QSPH.QSORRES.1" OrderNumber="1" Mandatory="Yes">
          <def:WhereClauseRef WhereClauseOID="WC.PHQ0101-09"/>
        </ItemRef>
        <ItemRef ItemOID="IT.QSPH.QSORRES.2" OrderNumber="2" Mandatory="Yes">
          <def:WhereClauseRef WhereClauseOID="WC.PHQ0110"/>
        </ItemRef>
        <ItemRef ItemOID="IT.QSPH.QSORRES.3" OrderNumber="3" Mandatory="Yes">
          <def:WhereClauseRef WhereClauseOID="WC.PHQ0111"/>
        </ItemRef>
      </def:ValueListDef>
      <def:ValueListDef OID="VL.QSSTRESC_PHQ">
        <ItemRef ItemOID="IT.QSPH.QSSTRESC.1" OrderNumber="1" Mandatory="Yes" MethodOID="MT.QSSTRESC_PH">
          <def:WhereClauseRef WhereClauseOID="WC.PHQ0101-09S"/>
        </ItemRef>
        <ItemRef ItemOID="IT.QSPH.QSSTRESC.2" OrderNumber="2" Mandatory="Yes" MethodOID="MT.QSSTRESC_PH_10_11">
          <def:WhereClauseRef WhereClauseOID="WC.PHQ0110S"/>
        </ItemRef>
        <ItemRef ItemOID="IT.QSPH.QSSTRESC.3" OrderNumber="3" Mandatory="Yes">
          <def:WhereClauseRef WhereClauseOID="WC.PHQ0111S"/>
        </ItemRef>
      </def:ValueListDef>
      <def:ValueListDef OID="VL.RACE">
        <ItemRef ItemOID="IT.DM.RACE.1" OrderNumber="1" Mandatory="Yes">
          <def:WhereClauseRef WhereClauseOID="WC.RACE"/>
        </ItemRef>
        <ItemRef ItemOID="IT.DM.RACE.2" OrderNumber="2" Mandatory="Yes">
          <def:WhereClauseRef WhereClauseOID="WC.RACEMULT"/>
        </ItemRef>
      </def:ValueListDef>
      <def:ValueListDef OID="VL.RSORRES">
        <ItemRef ItemOID="IT.RS.RSORRES.1" OrderNumber="1" Mandatory="No">
          <def:WhereClauseRef WhereClauseOID="WC.HAMD101"/>
        </ItemRef>
        <ItemRef ItemOID="IT.RS.RSORRES.2" OrderNumber="2" Mandatory="No">
          <def:WhereClauseRef WhereClauseOID="WC.HAMD102"/>
        </ItemRef>
        <ItemRef ItemOID="IT.RS.RSORRES.3" OrderNumber="3" Mandatory="No">
          <def:WhereClauseRef WhereClauseOID="WC.HAMD103"/>
        </ItemRef>
        <ItemRef ItemOID="IT.RS.RSORRES.4" OrderNumber="4" Mandatory="No">
          <def:WhereClauseRef WhereClauseOID="WC.HAMD104"/>
        </ItemRef>
        <ItemRef ItemOID="IT.RS.RSORRES.5" OrderNumber="5" Mandatory="No">
          <def:WhereClauseRef WhereClauseOID="WC.HAMD105"/>
        </ItemRef>
        <ItemRef ItemOID="IT.RS.RSORRES.6" OrderNumber="6" Mandatory="No">
          <def:WhereClauseRef WhereClauseOID="WC.HAMD106"/>
        </ItemRef>
        <ItemRef ItemOID="IT.RS.RSORRES.7" OrderNumber="7" Mandatory="No">
          <def:WhereClauseRef WhereClauseOID="WC.HAMD107"/>
        </ItemRef>
        <ItemRef ItemOID="IT.RS.RSORRES.8" OrderNumber="8" Mandatory="No">
          <def:WhereClauseRef WhereClauseOID="WC.HAMD108"/>
        </ItemRef>
        <ItemRef ItemOID="IT.RS.RSORRES.9" OrderNumber="9" Mandatory="No">
          <def:WhereClauseRef WhereClauseOID="WC.HAMD109"/>
        </ItemRef>
        <ItemRef ItemOID="IT.RS.RSORRES.10" OrderNumber="10" Mandatory="No">
          <def:WhereClauseRef WhereClauseOID="WC.HAMD110"/>
        </ItemRef>
        <ItemRef ItemOID="IT.RS.RSORRES.11" OrderNumber="11" Mandatory="No">
          <def:WhereClauseRef WhereClauseOID="WC.HAMD111"/>
        </ItemRef>
        <ItemRef ItemOID="IT.RS.RSORRES.12" OrderNumber="12" Mandatory="No">
          <def:WhereClauseRef WhereClauseOID="WC.HAMD112"/>
        </ItemRef>
        <ItemRef ItemOID="IT.RS.RSORRES.13" OrderNumber="13" Mandatory="No">
          <def:WhereClauseRef WhereClauseOID="WC.HAMD113"/>
        </ItemRef>
        <ItemRef ItemOID="IT.RS.RSORRES.14" OrderNumber="14" Mandatory="No">
          <def:WhereClauseRef WhereClauseOID="WC.HAMD114"/>
        </ItemRef>
        <ItemRef ItemOID="IT.RS.RSORRES.15" OrderNumber="15" Mandatory="No">
          <def:WhereClauseRef WhereClauseOID="WC.HAMD115"/>
        </ItemRef>
        <ItemRef ItemOID="IT.RS.RSORRES.16" OrderNumber="16" Mandatory="No">
          <def:WhereClauseRef WhereClauseOID="WC.HAMD116A"/>
        </ItemRef>
        <ItemRef ItemOID="IT.RS.RSORRES.17" OrderNumber="17" Mandatory="No">
          <def:WhereClauseRef WhereClauseOID="WC.HAMD116B"/>
        </ItemRef>
        <ItemRef ItemOID="IT.RS.RSORRES.18" OrderNumber="18" Mandatory="No">
          <def:WhereClauseRef WhereClauseOID="WC.HAMD117"/>
        </ItemRef>
        <ItemRef ItemOID="IT.RS.RSORRES.19" OrderNumber="19" Mandatory="No">
          <def:WhereClauseRef WhereClauseOID="WC.HAMD118"/>
        </ItemRef>
      </def:ValueListDef>
      <def:ValueListDef OID="VL.RSSTRESC">
        <ItemRef ItemOID="IT.RS.RSSTRESC.1" OrderNumber="1" Mandatory="No">
          <def:WhereClauseRef WhereClauseOID="WC.HAMD101S"/>
        </ItemRef>
        <ItemRef ItemOID="IT.RS.RSSTRESC.2" OrderNumber="2" Mandatory="No">
          <def:WhereClauseRef WhereClauseOID="WC.HAMD102S"/>
        </ItemRef>
        <ItemRef ItemOID="IT.RS.RSSTRESC.3" OrderNumber="3" Mandatory="No">
          <def:WhereClauseRef WhereClauseOID="WC.HAMD103S"/>
        </ItemRef>
        <ItemRef ItemOID="IT.RS.RSSTRESC.4" OrderNumber="4" Mandatory="No">
          <def:WhereClauseRef WhereClauseOID="WC.HAMD104S"/>
        </ItemRef>
        <ItemRef ItemOID="IT.RS.RSSTRESC.5" OrderNumber="5" Mandatory="No">
          <def:WhereClauseRef WhereClauseOID="WC.HAMD105S"/>
        </ItemRef>
        <ItemRef ItemOID="IT.RS.RSSTRESC.6" OrderNumber="6" Mandatory="No">
          <def:WhereClauseRef WhereClauseOID="WC.HAMD106S"/>
        </ItemRef>
        <ItemRef ItemOID="IT.RS.RSSTRESC.7" OrderNumber="7" Mandatory="No">
          <def:WhereClauseRef WhereClauseOID="WC.HAMD107S"/>
        </ItemRef>
        <ItemRef ItemOID="IT.RS.RSSTRESC.8" OrderNumber="8" Mandatory="No">
          <def:WhereClauseRef WhereClauseOID="WC.HAMD108S"/>
        </ItemRef>
        <ItemRef ItemOID="IT.RS.RSSTRESC.9" OrderNumber="9" Mandatory="No">
          <def:WhereClauseRef WhereClauseOID="WC.HAMD109S"/>
        </ItemRef>
        <ItemRef ItemOID="IT.RS.RSSTRESC.10" OrderNumber="10" Mandatory="No">
          <def:WhereClauseRef WhereClauseOID="WC.HAMD110S"/>
        </ItemRef>
        <ItemRef ItemOID="IT.RS.RSSTRESC.11" OrderNumber="11" Mandatory="No">
          <def:WhereClauseRef WhereClauseOID="WC.HAMD111S"/>
        </ItemRef>
        <ItemRef ItemOID="IT.RS.RSSTRESC.12" OrderNumber="12" Mandatory="No">
          <def:WhereClauseRef WhereClauseOID="WC.HAMD112S"/>
        </ItemRef>
        <ItemRef ItemOID="IT.RS.RSSTRESC.13" OrderNumber="13" Mandatory="No">
          <def:WhereClauseRef WhereClauseOID="WC.HAMD113S"/>
        </ItemRef>
        <ItemRef ItemOID="IT.RS.RSSTRESC.14" OrderNumber="14" Mandatory="No">
          <def:WhereClauseRef WhereClauseOID="WC.HAMD114S"/>
        </ItemRef>
        <ItemRef ItemOID="IT.RS.RSSTRESC.15" OrderNumber="15" Mandatory="No">
          <def:WhereClauseRef WhereClauseOID="WC.HAMD115S"/>
        </ItemRef>
        <ItemRef ItemOID="IT.RS.RSSTRESC.16" OrderNumber="16" Mandatory="No">
          <def:WhereClauseRef WhereClauseOID="WC.HAMD116AS"/>
        </ItemRef>
        <ItemRef ItemOID="IT.RS.RSSTRESC.17" OrderNumber="17" Mandatory="No">
          <def:WhereClauseRef WhereClauseOID="WC.HAMD116BS"/>
        </ItemRef>
        <ItemRef ItemOID="IT.RS.RSSTRESC.18" OrderNumber="18" Mandatory="No">
          <def:WhereClauseRef WhereClauseOID="WC.HAMD117S"/>
        </ItemRef>
        <ItemRef ItemOID="IT.RS.RSSTRESC.19" OrderNumber="19" Mandatory="No">
          <def:WhereClauseRef WhereClauseOID="WC.HAMD118S"/>
        </ItemRef>
      </def:ValueListDef>
      <def:ValueListDef OID="VL.SUPPDM">
        <ItemRef ItemOID="IT.SUPPDM.QVAL.1" OrderNumber="1" Mandatory="Yes"
         Role="Result Qualifier">
          <def:WhereClauseRef WhereClauseOID="WC.RACE1"/>
        </ItemRef>
        <ItemRef ItemOID="IT.SUPPDM.QVAL.2" OrderNumber="2" Mandatory="Yes"
         Role="Result Qualifier">
          <def:WhereClauseRef WhereClauseOID="WC.RACE2"/>
        </ItemRef>
        <ItemRef ItemOID="IT.SUPPDM.QVAL.3" OrderNumber="3" Mandatory="Yes"
         Role="Result Qualifier">
          <def:WhereClauseRef WhereClauseOID="WC.RACE3"/>
        </ItemRef>
        <ItemRef ItemOID="IT.SUPPDM.QVAL.4" OrderNumber="4" Mandatory="Yes"
         Role="Result Qualifier" def:HasNoData="Yes">
          <def:WhereClauseRef WhereClauseOID="WC.RACE4"/>
        </ItemRef>
        <ItemRef ItemOID="IT.SUPPDM.QVAL.5" OrderNumber="5" Mandatory="Yes"
         Role="Result Qualifier" def:HasNoData="Yes">
          <def:WhereClauseRef WhereClauseOID="WC.RACE5"/>
        </ItemRef>
      </def:ValueListDef>
      <def:ValueListDef OID="VL.SUPPEC">
        <ItemRef ItemOID="IT.SUPPEC.QVAL.1" OrderNumber="1" Mandatory="Yes"
         Role="Variable Qualifier">
          <def:WhereClauseRef WhereClauseOID="WC.ECREASOC"/>
        </ItemRef>
      </def:ValueListDef>
      <def:ValueListDef OID="VL.SUPPNV">
        <ItemRef ItemOID="IT.SUPPNV.QVAL.1" OrderNumber="1" Mandatory="Yes"
         Role="Result Qualifier">
          <def:WhereClauseRef WhereClauseOID="WC.NVCLSIG"/>
        </ItemRef>
      </def:ValueListDef>
      <def:ValueListDef OID="VL.SUPPOE">
        <ItemRef ItemOID="IT.SUPPOE.QVAL.1" OrderNumber="1" Mandatory="No"
         Role="Result Qualifier">
          <def:WhereClauseRef WhereClauseOID="WC.OECLSIG"/>
        </ItemRef>
      </def:ValueListDef>
      <def:ValueListDef OID="VL.TSVAL">
        <ItemRef ItemOID="IT.TS.TSVAL.1" OrderNumber="1" Mandatory="No">
          <def:WhereClauseRef WhereClauseOID="WC.TS_YN"/>
        </ItemRef>
        <ItemRef ItemOID="IT.TS.TSVAL.2" OrderNumber="2" Mandatory="No">
          <def:WhereClauseRef WhereClauseOID="WC.TS_INTEGER"/>
        </ItemRef>
        <ItemRef ItemOID="IT.TS.TSVAL.3" OrderNumber="3" Mandatory="No">
          <def:WhereClauseRef WhereClauseOID="WC.TS_DATE"/>
        </ItemRef>
        <ItemRef ItemOID="IT.TS.TSVAL.4" OrderNumber="4" Mandatory="No">
          <def:WhereClauseRef WhereClauseOID="WC.TS_FRM"/>
        </ItemRef>
        <ItemRef ItemOID="IT.TS.TSVAL.5" OrderNumber="5" Mandatory="No">
          <def:WhereClauseRef WhereClauseOID="WC.TS_FREQ"/>
        </ItemRef>
        <ItemRef ItemOID="IT.TS.TSVAL.6" OrderNumber="6" Mandatory="No">
          <def:WhereClauseRef WhereClauseOID="WC.TS_UNIT"/>
        </ItemRef>
        <ItemRef ItemOID="IT.TS.TSVAL.7" OrderNumber="7" Mandatory="No">
          <def:WhereClauseRef WhereClauseOID="WC.TS_COUNTRY"/>
        </ItemRef>
        <ItemRef ItemOID="IT.TS.TSVAL.8" OrderNumber="8" Mandatory="No">
          <def:WhereClauseRef WhereClauseOID="WC.TS_INDIC"/>
        </ItemRef>
        <ItemRef ItemOID="IT.TS.TSVAL.9" OrderNumber="9" Mandatory="No">
          <def:WhereClauseRef WhereClauseOID="WC.TS_MODEL"/>
        </ItemRef>
        <ItemRef ItemOID="IT.TS.TSVAL.10" OrderNumber="10" Mandatory="No">
          <def:WhereClauseRef WhereClauseOID="WC.TS_INTTYPE"/>
        </ItemRef>
        <ItemRef ItemOID="IT.TS.TSVAL.11" OrderNumber="11" Mandatory="No">
          <def:WhereClauseRef WhereClauseOID="WC.TS_DURATION"/>
        </ItemRef>
        <ItemRef ItemOID="IT.TS.TSVAL.12" OrderNumber="12" Mandatory="No">
          <def:WhereClauseRef WhereClauseOID="WC.TS_OBJPRIM"/>
        </ItemRef>
        <ItemRef ItemOID="IT.TS.TSVAL.13" OrderNumber="13" Mandatory="No">
          <def:WhereClauseRef WhereClauseOID="WC.TS_OBJSEC"/>
        </ItemRef>
        <ItemRef ItemOID="IT.TS.TSVAL.14" OrderNumber="14" Mandatory="No">
          <def:WhereClauseRef WhereClauseOID="WC.TS_OUTMSPRI"/>
        </ItemRef>
        <ItemRef ItemOID="IT.TS.TSVAL.15" OrderNumber="15" Mandatory="No">
          <def:WhereClauseRef WhereClauseOID="WC.TS_PCLAS"/>
        </ItemRef>
        <ItemRef ItemOID="IT.TS.TSVAL.16" OrderNumber="16" Mandatory="No">
          <def:WhereClauseRef WhereClauseOID="WC.TS_FLOAT"/>
        </ItemRef>
        <ItemRef ItemOID="IT.TS.TSVAL.17" OrderNumber="17" Mandatory="No">
          <def:WhereClauseRef WhereClauseOID="WC.TS_REGID"/>
        </ItemRef>
        <ItemRef ItemOID="IT.TS.TSVAL.18" OrderNumber="18" Mandatory="No">
          <def:WhereClauseRef WhereClauseOID="WC.TS_ROUTE"/>
        </ItemRef>
        <ItemRef ItemOID="IT.TS.TSVAL.19" OrderNumber="19" Mandatory="No">
          <def:WhereClauseRef WhereClauseOID="WC.TS_SDTM"/>
        </ItemRef>
        <ItemRef ItemOID="IT.TS.TSVAL.20" OrderNumber="20" Mandatory="No">
          <def:WhereClauseRef WhereClauseOID="WC.TS_SEX"/>
        </ItemRef>
        <ItemRef ItemOID="IT.TS.TSVAL.21" OrderNumber="21" Mandatory="No">
          <def:WhereClauseRef WhereClauseOID="WC.TS_SPONSOR"/>
        </ItemRef>
        <ItemRef ItemOID="IT.TS.TSVAL.22" OrderNumber="22" Mandatory="No">
          <def:WhereClauseRef WhereClauseOID="WC.TS_STOPRULE"/>
        </ItemRef>
        <ItemRef ItemOID="IT.TS.TSVAL.23" OrderNumber="23" Mandatory="No">
          <def:WhereClauseRef WhereClauseOID="WC.TS_STYPE"/>
        </ItemRef>
        <ItemRef ItemOID="IT.TS.TSVAL.24" OrderNumber="24" Mandatory="No">
          <def:WhereClauseRef WhereClauseOID="WC.TS_BLIND"/>
        </ItemRef>
        <ItemRef ItemOID="IT.TS.TSVAL.25" OrderNumber="25" Mandatory="No">
          <def:WhereClauseRef WhereClauseOID="WC.TS_CONTROL"/>
        </ItemRef>
        <ItemRef ItemOID="IT.TS.TSVAL.26" OrderNumber="26" Mandatory="No">
          <def:WhereClauseRef WhereClauseOID="WC.TS_TDIGRP"/>
        </ItemRef>
        <ItemRef ItemOID="IT.TS.TSVAL.27" OrderNumber="27" Mandatory="No">
          <def:WhereClauseRef WhereClauseOID="WC.TS_TINDTP"/>
        </ItemRef>
        <ItemRef ItemOID="IT.TS.TSVAL.28" OrderNumber="28" Mandatory="No">
          <def:WhereClauseRef WhereClauseOID="WC.TS_TITLE"/>
        </ItemRef>
        <ItemRef ItemOID="IT.TS.TSVAL.29" OrderNumber="29" Mandatory="No">
          <def:WhereClauseRef WhereClauseOID="WC.TS_PHASE"/>
        </ItemRef>
        <ItemRef ItemOID="IT.TS.TSVAL.30" OrderNumber="30" Mandatory="No">
          <def:WhereClauseRef WhereClauseOID="WC.TS_TRT"/>
        </ItemRef>
        <ItemRef ItemOID="IT.TS.TSVAL.31" OrderNumber="31" Mandatory="No">
          <def:WhereClauseRef WhereClauseOID="WC.TS_TTYPE"/>
        </ItemRef>
      </def:ValueListDef>
      <def:ValueListDef OID="VL.VSORRES">
        <ItemRef ItemOID="IT.VS.VSORRES.1" OrderNumber="1" Mandatory="No">
          <def:WhereClauseRef WhereClauseOID="WC.BP"/>
        </ItemRef>
        <ItemRef ItemOID="IT.VS.VSORRES.2" OrderNumber="2" Mandatory="No">
          <def:WhereClauseRef WhereClauseOID="WC.HEIGHT"/>
        </ItemRef>
        <ItemRef ItemOID="IT.VS.VSORRES.3" OrderNumber="3" Mandatory="No">
          <def:WhereClauseRef WhereClauseOID="WC.PULSE"/>
        </ItemRef>
        <ItemRef ItemOID="IT.VS.VSORRES.5" OrderNumber="4" Mandatory="No">
          <def:WhereClauseRef WhereClauseOID="WC.TEMP"/>
        </ItemRef>
        <ItemRef ItemOID="IT.VS.VSORRES.6" OrderNumber="5" Mandatory="No">
          <def:WhereClauseRef WhereClauseOID="WC.WEIGHT"/>
        </ItemRef>
      </def:ValueListDef>
      <def:ValueListDef OID="VL.VSORRESU">
        <ItemRef ItemOID="IT.VS.VSORRESU.1" OrderNumber="1" Mandatory="No">
          <def:WhereClauseRef WhereClauseOID="WC.BP"/>
        </ItemRef>
        <ItemRef ItemOID="IT.VS.VSORRESU.2" OrderNumber="2" Mandatory="No">
          <def:WhereClauseRef WhereClauseOID="WC.HEIGHTU"/>
        </ItemRef>
        <ItemRef ItemOID="IT.VS.VSORRESU.3" OrderNumber="3" Mandatory="No">
          <def:WhereClauseRef WhereClauseOID="WC.PULSEU"/>
        </ItemRef>
        <ItemRef ItemOID="IT.VS.VSORRESU.5" OrderNumber="4" Mandatory="No">
          <def:WhereClauseRef WhereClauseOID="WC.TEMPU"/>
        </ItemRef>
        <ItemRef ItemOID="IT.VS.VSORRESU.6" OrderNumber="5" Mandatory="No">
          <def:WhereClauseRef WhereClauseOID="WC.WEIGHTU"/>
        </ItemRef>
      </def:ValueListDef>
      <def:ValueListDef OID="VL.VSSTRESU">
        <ItemRef ItemOID="IT.VS.VSSTRESU.1" OrderNumber="1" Mandatory="No">
          <def:WhereClauseRef WhereClauseOID="WC.BP"/>
        </ItemRef>
        <ItemRef ItemOID="IT.VS.VSSTRESU.2" OrderNumber="2" Mandatory="No">
          <def:WhereClauseRef WhereClauseOID="WC.HEIGHTU"/>
        </ItemRef>
        <ItemRef ItemOID="IT.VS.VSSTRESU.3" OrderNumber="3" Mandatory="No">
          <def:WhereClauseRef WhereClauseOID="WC.PULSEU"/>
        </ItemRef>
        <ItemRef ItemOID="IT.VS.VSSTRESU.5" OrderNumber="4" Mandatory="No">
          <def:WhereClauseRef WhereClauseOID="WC.TEMPU"/>
        </ItemRef>
        <ItemRef ItemOID="IT.VS.VSSTRESU.6" OrderNumber="5" Mandatory="No">
          <def:WhereClauseRef WhereClauseOID="WC.WEIGHTU"/>
        </ItemRef>
      </def:ValueListDef>


      <!-- ************************************************************************** -->
      <!-- WhereClause Definitions Section (Used/Referenced in Value List Definitions) -->
      <!-- ************************************************************************** -->

      <def:WhereClauseDef OID="WC.AETERM1">
        <RangeCheck Comparator="EQ" SoftHard="Soft" def:ItemOID="IT.AE.AETERM">
          <CheckValue>INJECTION SITE REACTION</CheckValue>
        </RangeCheck>
      </def:WhereClauseDef>
      <def:WhereClauseDef OID="WC.AETERM2">
        <RangeCheck Comparator="NE" SoftHard="Soft" def:ItemOID="IT.AE.AETERM">
          <CheckValue>INJECTION SITE REACTION</CheckValue>
        </RangeCheck>
      </def:WhereClauseDef>
      <def:WhereClauseDef OID="WC.AVL0201-15">
        <RangeCheck Comparator="IN" SoftHard="Soft" def:ItemOID="IT.FT.FTTESTCD">
          <CheckValue>AVL0201</CheckValue>
          <CheckValue>AVL0202</CheckValue>
          <CheckValue>AVL0203</CheckValue>
          <CheckValue>AVL0204</CheckValue>
          <CheckValue>AVL0205</CheckValue>
          <CheckValue>AVL0206</CheckValue>
          <CheckValue>AVL0207</CheckValue>
          <CheckValue>AVL0208</CheckValue>
          <CheckValue>AVL0209</CheckValue>
          <CheckValue>AVL0210</CheckValue>
          <CheckValue>AVL0211</CheckValue>
          <CheckValue>AVL0212</CheckValue>
          <CheckValue>AVL0213</CheckValue>
          <CheckValue>AVL0214</CheckValue>
          <CheckValue>AVL0215</CheckValue>
        </RangeCheck>
      </def:WhereClauseDef>
      <def:WhereClauseDef OID="WC.AVL0216-17">
        <RangeCheck Comparator="IN" SoftHard="Soft" def:ItemOID="IT.FT.FTTESTCD">
          <CheckValue>AVL0216</CheckValue>
          <CheckValue>AVL0217</CheckValue>
        </RangeCheck>
      </def:WhereClauseDef>
      <def:WhereClauseDef OID="WC.AVL0218-32">
        <RangeCheck Comparator="IN" SoftHard="Soft" def:ItemOID="IT.FT.FTTESTCD">
          <CheckValue>AVL0218</CheckValue>
          <CheckValue>AVL0219</CheckValue>
          <CheckValue>AVL0220</CheckValue>
          <CheckValue>AVL0221</CheckValue>
          <CheckValue>AVL0222</CheckValue>
          <CheckValue>AVL0223</CheckValue>
          <CheckValue>AVL0224</CheckValue>
          <CheckValue>AVL0225</CheckValue>
          <CheckValue>AVL0226</CheckValue>
          <CheckValue>AVL0227</CheckValue>
          <CheckValue>AVL0228</CheckValue>
          <CheckValue>AVL0229</CheckValue>
          <CheckValue>AVL0230</CheckValue>
          <CheckValue>AVL0231</CheckValue>
          <CheckValue>AVL0232</CheckValue>
        </RangeCheck>
      </def:WhereClauseDef>
      <def:WhereClauseDef OID="WC.AVL0233-34">
        <RangeCheck Comparator="IN" SoftHard="Soft" def:ItemOID="IT.FT.FTTESTCD">
          <CheckValue>AVL0233</CheckValue>
          <CheckValue>AVL0234</CheckValue>
        </RangeCheck>
      </def:WhereClauseDef>
      <def:WhereClauseDef OID="WC.BP">
        <RangeCheck Comparator="IN" SoftHard="Soft" def:ItemOID="IT.VS.VSTESTCD">
          <CheckValue>DIABP</CheckValue>
          <CheckValue>SYSBP</CheckValue>
        </RangeCheck>
      </def:WhereClauseDef>
      <def:WhereClauseDef OID="WC.DSDECOD1">
        <RangeCheck Comparator="NE" SoftHard="Soft" def:ItemOID="IT.DS.DSSCAT">
          <CheckValue></CheckValue>
        </RangeCheck>
      </def:WhereClauseDef>
      <def:WhereClauseDef OID="WC.DSDECOD2">
        <RangeCheck Comparator="EQ" SoftHard="Soft" def:ItemOID="IT.DS.DSSCAT">
          <CheckValue></CheckValue>
        </RangeCheck>
      </def:WhereClauseDef>
      <def:WhereClauseDef OID="WC.DSTERM1">
        <RangeCheck Comparator="NE" SoftHard="Soft" def:ItemOID="IT.DS.DSSCAT">
          <CheckValue></CheckValue>
        </RangeCheck>
      </def:WhereClauseDef>
      <def:WhereClauseDef OID="WC.DSTERM2">
        <RangeCheck Comparator="EQ" SoftHard="Soft" def:ItemOID="IT.DS.DSSCAT">
          <CheckValue></CheckValue>
        </RangeCheck>
      </def:WhereClauseDef>
      <def:WhereClauseDef OID="WC.ECREASOC">
        <RangeCheck Comparator="EQ" SoftHard="Soft" def:ItemOID="IT.SUPPEC.QNAM">
          <CheckValue>ECREASOC</CheckValue>
        </RangeCheck>
      </def:WhereClauseDef>
      <def:WhereClauseDef OID="WC.FAOCCUR">
        <RangeCheck Comparator="EQ" SoftHard="Soft" def:ItemOID="IT.FA.FATESTCD">
          <CheckValue>OCCUR</CheckValue>
        </RangeCheck>
      </def:WhereClauseDef>
      <def:WhereClauseDef OID="WC.FASEV">
        <RangeCheck Comparator="EQ" SoftHard="Soft" def:ItemOID="IT.FA.FATESTCD">
          <CheckValue>SEV</CheckValue>
        </RangeCheck>
      </def:WhereClauseDef>
      <def:WhereClauseDef OID="WC.HAMD101">
        <RangeCheck Comparator="EQ" SoftHard="Soft" def:ItemOID="IT.RS.RSTESTCD">
          <CheckValue>HAMD101</CheckValue>
        </RangeCheck>
      </def:WhereClauseDef>
      <def:WhereClauseDef OID="WC.HAMD101S">
        <RangeCheck Comparator="EQ" SoftHard="Soft" def:ItemOID="IT.RS.RSTESTCD">
          <CheckValue>HAMD101</CheckValue>
        </RangeCheck>
      </def:WhereClauseDef>
      <def:WhereClauseDef OID="WC.HAMD102">
        <RangeCheck Comparator="EQ" SoftHard="Soft" def:ItemOID="IT.RS.RSTESTCD">
          <CheckValue>HAMD102</CheckValue>
        </RangeCheck>
      </def:WhereClauseDef>
      <def:WhereClauseDef OID="WC.HAMD102S">
        <RangeCheck Comparator="EQ" SoftHard="Soft" def:ItemOID="IT.RS.RSTESTCD">
          <CheckValue>HAMD102</CheckValue>
        </RangeCheck>
      </def:WhereClauseDef>
      <def:WhereClauseDef OID="WC.HAMD103">
        <RangeCheck Comparator="EQ" SoftHard="Soft" def:ItemOID="IT.RS.RSTESTCD">
          <CheckValue>HAMD103</CheckValue>
        </RangeCheck>
      </def:WhereClauseDef>
      <def:WhereClauseDef OID="WC.HAMD103S">
        <RangeCheck Comparator="EQ" SoftHard="Soft" def:ItemOID="IT.RS.RSTESTCD">
          <CheckValue>HAMD103</CheckValue>
        </RangeCheck>
      </def:WhereClauseDef>
      <def:WhereClauseDef OID="WC.HAMD104">
        <RangeCheck Comparator="EQ" SoftHard="Soft" def:ItemOID="IT.RS.RSTESTCD">
          <CheckValue>HAMD104</CheckValue>
        </RangeCheck>
      </def:WhereClauseDef>
      <def:WhereClauseDef OID="WC.HAMD104S">
        <RangeCheck Comparator="EQ" SoftHard="Soft" def:ItemOID="IT.RS.RSTESTCD">
          <CheckValue>HAMD104</CheckValue>
        </RangeCheck>
      </def:WhereClauseDef>
      <def:WhereClauseDef OID="WC.HAMD105">
        <RangeCheck Comparator="EQ" SoftHard="Soft" def:ItemOID="IT.RS.RSTESTCD">
          <CheckValue>HAMD105</CheckValue>
        </RangeCheck>
      </def:WhereClauseDef>
      <def:WhereClauseDef OID="WC.HAMD105S">
        <RangeCheck Comparator="EQ" SoftHard="Soft" def:ItemOID="IT.RS.RSTESTCD">
          <CheckValue>HAMD105</CheckValue>
        </RangeCheck>
      </def:WhereClauseDef>
      <def:WhereClauseDef OID="WC.HAMD106">
        <RangeCheck Comparator="EQ" SoftHard="Soft" def:ItemOID="IT.RS.RSTESTCD">
          <CheckValue>HAMD106</CheckValue>
        </RangeCheck>
      </def:WhereClauseDef>
      <def:WhereClauseDef OID="WC.HAMD106S">
        <RangeCheck Comparator="EQ" SoftHard="Soft" def:ItemOID="IT.RS.RSTESTCD">
          <CheckValue>HAMD106</CheckValue>
        </RangeCheck>
      </def:WhereClauseDef>
      <def:WhereClauseDef OID="WC.HAMD107">
        <RangeCheck Comparator="EQ" SoftHard="Soft" def:ItemOID="IT.RS.RSTESTCD">
          <CheckValue>HAMD107</CheckValue>
        </RangeCheck>
      </def:WhereClauseDef>
      <def:WhereClauseDef OID="WC.HAMD107S">
        <RangeCheck Comparator="EQ" SoftHard="Soft" def:ItemOID="IT.RS.RSTESTCD">
          <CheckValue>HAMD107</CheckValue>
        </RangeCheck>
      </def:WhereClauseDef>
      <def:WhereClauseDef OID="WC.HAMD108">
        <RangeCheck Comparator="EQ" SoftHard="Soft" def:ItemOID="IT.RS.RSTESTCD">
          <CheckValue>HAMD108</CheckValue>
        </RangeCheck>
      </def:WhereClauseDef>
      <def:WhereClauseDef OID="WC.HAMD108S">
        <RangeCheck Comparator="EQ" SoftHard="Soft" def:ItemOID="IT.RS.RSTESTCD">
          <CheckValue>HAMD108</CheckValue>
        </RangeCheck>
      </def:WhereClauseDef>
      <def:WhereClauseDef OID="WC.HAMD109">
        <RangeCheck Comparator="EQ" SoftHard="Soft" def:ItemOID="IT.RS.RSTESTCD">
          <CheckValue>HAMD109</CheckValue>
        </RangeCheck>
      </def:WhereClauseDef>
      <def:WhereClauseDef OID="WC.HAMD109S">
        <RangeCheck Comparator="EQ" SoftHard="Soft" def:ItemOID="IT.RS.RSTESTCD">
          <CheckValue>HAMD109</CheckValue>
        </RangeCheck>
      </def:WhereClauseDef>
      <def:WhereClauseDef OID="WC.HAMD110">
        <RangeCheck Comparator="EQ" SoftHard="Soft" def:ItemOID="IT.RS.RSTESTCD">
          <CheckValue>HAMD110</CheckValue>
        </RangeCheck>
      </def:WhereClauseDef>
      <def:WhereClauseDef OID="WC.HAMD110S">
        <RangeCheck Comparator="EQ" SoftHard="Soft" def:ItemOID="IT.RS.RSTESTCD">
          <CheckValue>HAMD110</CheckValue>
        </RangeCheck>
      </def:WhereClauseDef>
      <def:WhereClauseDef OID="WC.HAMD111">
        <RangeCheck Comparator="EQ" SoftHard="Soft" def:ItemOID="IT.RS.RSTESTCD">
          <CheckValue>HAMD111</CheckValue>
        </RangeCheck>
      </def:WhereClauseDef>
      <def:WhereClauseDef OID="WC.HAMD111S">
        <RangeCheck Comparator="EQ" SoftHard="Soft" def:ItemOID="IT.RS.RSTESTCD">
          <CheckValue>HAMD111</CheckValue>
        </RangeCheck>
      </def:WhereClauseDef>
      <def:WhereClauseDef OID="WC.HAMD112">
        <RangeCheck Comparator="EQ" SoftHard="Soft" def:ItemOID="IT.RS.RSTESTCD">
          <CheckValue>HAMD112</CheckValue>
        </RangeCheck>
      </def:WhereClauseDef>
      <def:WhereClauseDef OID="WC.HAMD112S">
        <RangeCheck Comparator="EQ" SoftHard="Soft" def:ItemOID="IT.RS.RSTESTCD">
          <CheckValue>HAMD112</CheckValue>
        </RangeCheck>
      </def:WhereClauseDef>
      <def:WhereClauseDef OID="WC.HAMD113">
        <RangeCheck Comparator="EQ" SoftHard="Soft" def:ItemOID="IT.RS.RSTESTCD">
          <CheckValue>HAMD113</CheckValue>
        </RangeCheck>
      </def:WhereClauseDef>
      <def:WhereClauseDef OID="WC.HAMD113S">
        <RangeCheck Comparator="EQ" SoftHard="Soft" def:ItemOID="IT.RS.RSTESTCD">
          <CheckValue>HAMD113</CheckValue>
        </RangeCheck>
      </def:WhereClauseDef>
      <def:WhereClauseDef OID="WC.HAMD114">
        <RangeCheck Comparator="EQ" SoftHard="Soft" def:ItemOID="IT.RS.RSTESTCD">
          <CheckValue>HAMD114</CheckValue>
        </RangeCheck>
      </def:WhereClauseDef>
      <def:WhereClauseDef OID="WC.HAMD114S">
        <RangeCheck Comparator="EQ" SoftHard="Soft" def:ItemOID="IT.RS.RSTESTCD">
          <CheckValue>HAMD114</CheckValue>
        </RangeCheck>
      </def:WhereClauseDef>
      <def:WhereClauseDef OID="WC.HAMD115">
        <RangeCheck Comparator="EQ" SoftHard="Soft" def:ItemOID="IT.RS.RSTESTCD">
          <CheckValue>HAMD115</CheckValue>
        </RangeCheck>
      </def:WhereClauseDef>
      <def:WhereClauseDef OID="WC.HAMD115S">
        <RangeCheck Comparator="EQ" SoftHard="Soft" def:ItemOID="IT.RS.RSTESTCD">
          <CheckValue>HAMD115</CheckValue>
        </RangeCheck>
      </def:WhereClauseDef>
      <def:WhereClauseDef OID="WC.HAMD116A">
        <RangeCheck Comparator="EQ" SoftHard="Soft" def:ItemOID="IT.RS.RSTESTCD">
          <CheckValue>HAMD116A</CheckValue>
        </RangeCheck>
      </def:WhereClauseDef>
      <def:WhereClauseDef OID="WC.HAMD116AS">
        <RangeCheck Comparator="EQ" SoftHard="Soft" def:ItemOID="IT.RS.RSTESTCD">
          <CheckValue>HAMD116A</CheckValue>
        </RangeCheck>
      </def:WhereClauseDef>
      <def:WhereClauseDef OID="WC.HAMD116B">
        <RangeCheck Comparator="EQ" SoftHard="Soft" def:ItemOID="IT.RS.RSTESTCD">
          <CheckValue>HAMD116B</CheckValue>
        </RangeCheck>
      </def:WhereClauseDef>
      <def:WhereClauseDef OID="WC.HAMD116BS">
        <RangeCheck Comparator="EQ" SoftHard="Soft" def:ItemOID="IT.RS.RSTESTCD">
          <CheckValue>HAMD116B</CheckValue>
        </RangeCheck>
      </def:WhereClauseDef>
      <def:WhereClauseDef OID="WC.HAMD117">
        <RangeCheck Comparator="EQ" SoftHard="Soft" def:ItemOID="IT.RS.RSTESTCD">
          <CheckValue>HAMD117</CheckValue>
        </RangeCheck>
      </def:WhereClauseDef>
      <def:WhereClauseDef OID="WC.HAMD117S">
        <RangeCheck Comparator="EQ" SoftHard="Soft" def:ItemOID="IT.RS.RSTESTCD">
          <CheckValue>HAMD117</CheckValue>
        </RangeCheck>
      </def:WhereClauseDef>
      <def:WhereClauseDef OID="WC.HAMD118">
        <RangeCheck Comparator="EQ" SoftHard="Soft" def:ItemOID="IT.RS.RSTESTCD">
          <CheckValue>HAMD118</CheckValue>
        </RangeCheck>
      </def:WhereClauseDef>
      <def:WhereClauseDef OID="WC.HAMD118S">
        <RangeCheck Comparator="EQ" SoftHard="Soft" def:ItemOID="IT.RS.RSTESTCD">
          <CheckValue>HAMD118</CheckValue>
        </RangeCheck>
      </def:WhereClauseDef>
      <def:WhereClauseDef OID="WC.HEIGHT">
        <RangeCheck Comparator="EQ" SoftHard="Soft" def:ItemOID="IT.VS.VSTESTCD">
          <CheckValue>HEIGHT</CheckValue>
        </RangeCheck>
      </def:WhereClauseDef>
      <def:WhereClauseDef OID="WC.HEIGHTU">
        <RangeCheck Comparator="EQ" SoftHard="Soft" def:ItemOID="IT.VS.VSTESTCD">
          <CheckValue>HEIGHT</CheckValue>
        </RangeCheck>
      </def:WhereClauseDef>
      <def:WhereClauseDef OID="WC.LB_ORRESU_UNITS_ALB">
        <RangeCheck Comparator="EQ" SoftHard="Soft" def:ItemOID="IT.LB.LBTESTCD">
          <CheckValue>ALB</CheckValue>
        </RangeCheck>
      </def:WhereClauseDef>
      <def:WhereClauseDef OID="WC.LB_ORRESU_UNITS_ALP">
        <RangeCheck Comparator="EQ" SoftHard="Soft" def:ItemOID="IT.LB.LBTESTCD">
          <CheckValue>ALP</CheckValue>
        </RangeCheck>
      </def:WhereClauseDef>
      <def:WhereClauseDef OID="WC.LB_ORRESU_UNITS_ALT">
        <RangeCheck Comparator="EQ" SoftHard="Soft" def:ItemOID="IT.LB.LBTESTCD">
          <CheckValue>ALT</CheckValue>
        </RangeCheck>
      </def:WhereClauseDef>
      <def:WhereClauseDef OID="WC.LB_ORRESU_UNITS_AST">
        <RangeCheck Comparator="EQ" SoftHard="Soft" def:ItemOID="IT.LB.LBTESTCD">
          <CheckValue>AST</CheckValue>
        </RangeCheck>
      </def:WhereClauseDef>
      <def:WhereClauseDef OID="WC.LB_ORRESU_UNITS_BASO">
        <RangeCheck Comparator="EQ" SoftHard="Soft" def:ItemOID="IT.LB.LBTESTCD">
          <CheckValue>BASO</CheckValue>
        </RangeCheck>
      </def:WhereClauseDef>
      <def:WhereClauseDef OID="WC.LB_ORRESU_UNITS_BILI">
        <RangeCheck Comparator="EQ" SoftHard="Soft" def:ItemOID="IT.LB.LBTESTCD">
          <CheckValue>BILI</CheckValue>
        </RangeCheck>
      </def:WhereClauseDef>
      <def:WhereClauseDef OID="WC.LB_ORRESU_UNITS_CA">
        <RangeCheck Comparator="EQ" SoftHard="Soft" def:ItemOID="IT.LB.LBTESTCD">
          <CheckValue>CA</CheckValue>
        </RangeCheck>
      </def:WhereClauseDef>
      <def:WhereClauseDef OID="WC.LB_ORRESU_UNITS_CHOL">
        <RangeCheck Comparator="EQ" SoftHard="Soft" def:ItemOID="IT.LB.LBTESTCD">
          <CheckValue>CHOL</CheckValue>
        </RangeCheck>
      </def:WhereClauseDef>
      <def:WhereClauseDef OID="WC.LB_ORRESU_UNITS_CK">
        <RangeCheck Comparator="EQ" SoftHard="Soft" def:ItemOID="IT.LB.LBTESTCD">
          <CheckValue>CK</CheckValue>
        </RangeCheck>
      </def:WhereClauseDef>
      <def:WhereClauseDef OID="WC.LB_ORRESU_UNITS_CL">
        <RangeCheck Comparator="EQ" SoftHard="Soft" def:ItemOID="IT.LB.LBTESTCD">
          <CheckValue>CL</CheckValue>
        </RangeCheck>
      </def:WhereClauseDef>
      <def:WhereClauseDef OID="WC.LB_ORRESU_UNITS_CREAT">
        <RangeCheck Comparator="EQ" SoftHard="Soft" def:ItemOID="IT.LB.LBTESTCD">
          <CheckValue>CREAT</CheckValue>
        </RangeCheck>
      </def:WhereClauseDef>
      <def:WhereClauseDef OID="WC.LB_ORRESU_UNITS_EOS">
        <RangeCheck Comparator="EQ" SoftHard="Soft" def:ItemOID="IT.LB.LBTESTCD">
          <CheckValue>EOS</CheckValue>
        </RangeCheck>
      </def:WhereClauseDef>
      <def:WhereClauseDef OID="WC.LB_ORRESU_UNITS_GGT">
        <RangeCheck Comparator="EQ" SoftHard="Soft" def:ItemOID="IT.LB.LBTESTCD">
          <CheckValue>GGT</CheckValue>
        </RangeCheck>
      </def:WhereClauseDef>
      <def:WhereClauseDef OID="WC.LB_ORRESU_UNITS_GLUC">
        <RangeCheck Comparator="EQ" SoftHard="Soft" def:ItemOID="IT.LB.LBTESTCD">
          <CheckValue>GLUC</CheckValue>
        </RangeCheck>
      </def:WhereClauseDef>
      <def:WhereClauseDef OID="WC.LB_ORRESU_UNITS_HCT">
        <RangeCheck Comparator="EQ" SoftHard="Soft" def:ItemOID="IT.LB.LBTESTCD">
          <CheckValue>HCT</CheckValue>
        </RangeCheck>
      </def:WhereClauseDef>
      <def:WhereClauseDef OID="WC.LB_ORRESU_UNITS_HGB">
        <RangeCheck Comparator="EQ" SoftHard="Soft" def:ItemOID="IT.LB.LBTESTCD">
          <CheckValue>HGB</CheckValue>
        </RangeCheck>
      </def:WhereClauseDef>
      <def:WhereClauseDef OID="WC.LB_ORRESU_UNITS_K">
        <RangeCheck Comparator="EQ" SoftHard="Soft" def:ItemOID="IT.LB.LBTESTCD">
          <CheckValue>K</CheckValue>
        </RangeCheck>
      </def:WhereClauseDef>
      <def:WhereClauseDef OID="WC.LB_ORRESU_UNITS_LYM">
        <RangeCheck Comparator="EQ" SoftHard="Soft" def:ItemOID="IT.LB.LBTESTCD">
          <CheckValue>LYM</CheckValue>
        </RangeCheck>
      </def:WhereClauseDef>
      <def:WhereClauseDef OID="WC.LB_ORRESU_UNITS_MCH">
        <RangeCheck Comparator="EQ" SoftHard="Soft" def:ItemOID="IT.LB.LBTESTCD">
          <CheckValue>MCH</CheckValue>
        </RangeCheck>
      </def:WhereClauseDef>
      <def:WhereClauseDef OID="WC.LB_ORRESU_UNITS_MCHC">
        <RangeCheck Comparator="EQ" SoftHard="Soft" def:ItemOID="IT.LB.LBTESTCD">
          <CheckValue>MCHC</CheckValue>
        </RangeCheck>
      </def:WhereClauseDef>
      <def:WhereClauseDef OID="WC.LB_ORRESU_UNITS_MCV">
        <RangeCheck Comparator="EQ" SoftHard="Soft" def:ItemOID="IT.LB.LBTESTCD">
          <CheckValue>MCV</CheckValue>
        </RangeCheck>
      </def:WhereClauseDef>
      <def:WhereClauseDef OID="WC.LB_ORRESU_UNITS_MONO">
        <RangeCheck Comparator="EQ" SoftHard="Soft" def:ItemOID="IT.LB.LBTESTCD">
          <CheckValue>MONO</CheckValue>
        </RangeCheck>
      </def:WhereClauseDef>
      <def:WhereClauseDef OID="WC.LB_ORRESU_UNITS_PHOS">
        <RangeCheck Comparator="EQ" SoftHard="Soft" def:ItemOID="IT.LB.LBTESTCD">
          <CheckValue>PHOS</CheckValue>
        </RangeCheck>
      </def:WhereClauseDef>
      <def:WhereClauseDef OID="WC.LB_ORRESU_UNITS_PLAT">
        <RangeCheck Comparator="EQ" SoftHard="Soft" def:ItemOID="IT.LB.LBTESTCD">
          <CheckValue>PLAT</CheckValue>
        </RangeCheck>
      </def:WhereClauseDef>
      <def:WhereClauseDef OID="WC.LB_ORRESU_UNITS_PROT">
        <RangeCheck Comparator="EQ" SoftHard="Soft" def:ItemOID="IT.LB.LBTESTCD">
          <CheckValue>PROT</CheckValue>
        </RangeCheck>
      </def:WhereClauseDef>
      <def:WhereClauseDef OID="WC.LB_ORRESU_UNITS_RBC">
        <RangeCheck Comparator="EQ" SoftHard="Soft" def:ItemOID="IT.LB.LBTESTCD">
          <CheckValue>RBC</CheckValue>
        </RangeCheck>
      </def:WhereClauseDef>
      <def:WhereClauseDef OID="WC.LB_ORRESU_UNITS_SODIUM">
        <RangeCheck Comparator="EQ" SoftHard="Soft" def:ItemOID="IT.LB.LBTESTCD">
          <CheckValue>SODIUM</CheckValue>
        </RangeCheck>
      </def:WhereClauseDef>
      <def:WhereClauseDef OID="WC.LB_ORRESU_UNITS_TSH">
        <RangeCheck Comparator="EQ" SoftHard="Soft" def:ItemOID="IT.LB.LBTESTCD">
          <CheckValue>TSH</CheckValue>
        </RangeCheck>
      </def:WhereClauseDef>
      <def:WhereClauseDef OID="WC.LB_ORRESU_UNITS_URATE">
        <RangeCheck Comparator="EQ" SoftHard="Soft" def:ItemOID="IT.LB.LBTESTCD">
          <CheckValue>URATE</CheckValue>
        </RangeCheck>
      </def:WhereClauseDef>
      <def:WhereClauseDef OID="WC.LB_ORRESU_UNITS_UREAN">
        <RangeCheck Comparator="EQ" SoftHard="Soft" def:ItemOID="IT.LB.LBTESTCD">
          <CheckValue>UREAN</CheckValue>
        </RangeCheck>
      </def:WhereClauseDef>
      <def:WhereClauseDef OID="WC.LB_ORRESU_UNITS_VITB12">
        <RangeCheck Comparator="EQ" SoftHard="Soft" def:ItemOID="IT.LB.LBTESTCD">
          <CheckValue>VITB12</CheckValue>
        </RangeCheck>
      </def:WhereClauseDef>
      <def:WhereClauseDef OID="WC.LB_ORRESU_UNITS_WBC">
        <RangeCheck Comparator="EQ" SoftHard="Soft" def:ItemOID="IT.LB.LBTESTCD">
          <CheckValue>WBC</CheckValue>
        </RangeCheck>
      </def:WhereClauseDef>
      <def:WhereClauseDef OID="WC.LB_ORRES_COLOR">
        <RangeCheck Comparator="EQ" SoftHard="Soft" def:ItemOID="IT.LB.LBTESTCD">
          <CheckValue>COLOR</CheckValue>
        </RangeCheck>
      </def:WhereClauseDef>
      <def:WhereClauseDef OID="WC.LB_ORRES_GLUC">
        <RangeCheck Comparator="EQ" SoftHard="Soft" def:ItemOID="IT.LB.LBTESTCD">
          <CheckValue>GLUC</CheckValue>
        </RangeCheck>
      </def:WhereClauseDef>
      <def:WhereClauseDef OID="WC.LB_ORRES_SET1">
        <RangeCheck Comparator="IN" SoftHard="Soft" def:ItemOID="IT.LB.LBTESTCD">
          <CheckValue>ALB</CheckValue>
          <CheckValue>BILI</CheckValue>
          <CheckValue>CA</CheckValue>
          <CheckValue>CREAT</CheckValue>
          <CheckValue>K</CheckValue>
          <CheckValue>PHOS</CheckValue>
          <CheckValue>PROT</CheckValue>
          <CheckValue>URATE</CheckValue>
        </RangeCheck>
      </def:WhereClauseDef>
      <def:WhereClauseDef OID="WC.LB_ORRES_SET2">
        <RangeCheck Comparator="IN" SoftHard="Soft" def:ItemOID="IT.LB.LBTESTCD">
          <CheckValue>HCT</CheckValue>
          <CheckValue>HGB</CheckValue>
        </RangeCheck>
      </def:WhereClauseDef>
      <def:WhereClauseDef OID="WC.LB_ORRES_SET3">
        <RangeCheck Comparator="IN" SoftHard="Soft" def:ItemOID="IT.LB.LBTESTCD">
          <CheckValue>BASO</CheckValue>
          <CheckValue>EOS</CheckValue>
          <CheckValue>LYM</CheckValue>
          <CheckValue>MONO</CheckValue>
          <CheckValue>RBC</CheckValue>
          <CheckValue>TSH</CheckValue>
          <CheckValue>WBC</CheckValue>
        </RangeCheck>
      </def:WhereClauseDef>
      <def:WhereClauseDef OID="WC.LB_ORRES_SET4">
        <RangeCheck Comparator="IN" SoftHard="Soft" def:ItemOID="IT.LB.LBTESTCD">
          <CheckValue>ANISO</CheckValue>
          <CheckValue>KETONES</CheckValue>
          <CheckValue>MACROCY</CheckValue>
          <CheckValue>PH</CheckValue>
          <CheckValue>POIKILO</CheckValue>
          <CheckValue>UROBIL</CheckValue>
        </RangeCheck>
      </def:WhereClauseDef>
      <def:WhereClauseDef OID="WC.LB_ORRES_SET5">
        <RangeCheck Comparator="IN" SoftHard="Soft" def:ItemOID="IT.LB.LBTESTCD">
          <CheckValue>ALT</CheckValue>
          <CheckValue>AST</CheckValue>
          <CheckValue>GGT</CheckValue>
          <CheckValue>MCH</CheckValue>
          <CheckValue>MCHC</CheckValue>
          <CheckValue>MCV</CheckValue>
          <CheckValue>UREAN</CheckValue>
        </RangeCheck>
      </def:WhereClauseDef>
      <def:WhereClauseDef OID="WC.LB_ORRES_SET6">
        <RangeCheck Comparator="IN" SoftHard="Soft" def:ItemOID="IT.LB.LBTESTCD">
          <CheckValue>ALP</CheckValue>
          <CheckValue>CHOL</CheckValue>
          <CheckValue>CK</CheckValue>
          <CheckValue>CL</CheckValue>
          <CheckValue>PLAT</CheckValue>
          <CheckValue>SODIUM</CheckValue>
          <CheckValue>VITB12</CheckValue>
        </RangeCheck>
      </def:WhereClauseDef>
      <def:WhereClauseDef OID="WC.LB_ORRES_SPGRAV">
        <RangeCheck Comparator="EQ" SoftHard="Soft" def:ItemOID="IT.LB.LBTESTCD">
          <CheckValue>SPGRAV</CheckValue>
        </RangeCheck>
      </def:WhereClauseDef>
      <def:WhereClauseDef OID="WC.LB_STRESC_BILI">
        <RangeCheck Comparator="EQ" SoftHard="Soft" def:ItemOID="IT.LB.LBTESTCD">
          <CheckValue>BILI</CheckValue>
        </RangeCheck>
      </def:WhereClauseDef>
      <def:WhereClauseDef OID="WC.LB_STRESC_CK">
        <RangeCheck Comparator="EQ" SoftHard="Soft" def:ItemOID="IT.LB.LBTESTCD">
          <CheckValue>CK</CheckValue>
        </RangeCheck>
      </def:WhereClauseDef>
      <def:WhereClauseDef OID="WC.LB_STRESC_COLOR">
        <RangeCheck Comparator="EQ" SoftHard="Soft" def:ItemOID="IT.LB.LBTESTCD">
          <CheckValue>COLOR</CheckValue>
        </RangeCheck>
      </def:WhereClauseDef>
      <def:WhereClauseDef OID="WC.LB_STRESC_CREAT">
        <RangeCheck Comparator="EQ" SoftHard="Soft" def:ItemOID="IT.LB.LBTESTCD">
          <CheckValue>CREAT</CheckValue>
        </RangeCheck>
      </def:WhereClauseDef>
      <def:WhereClauseDef OID="WC.LB_STRESC_GLUC">
        <RangeCheck Comparator="EQ" SoftHard="Soft" def:ItemOID="IT.LB.LBTESTCD">
          <CheckValue>GLUC</CheckValue>
        </RangeCheck>
      </def:WhereClauseDef>
      <def:WhereClauseDef OID="WC.LB_STRESC_HGB">
        <RangeCheck Comparator="EQ" SoftHard="Soft" def:ItemOID="IT.LB.LBTESTCD">
          <CheckValue>HGB</CheckValue>
        </RangeCheck>
      </def:WhereClauseDef>
      <def:WhereClauseDef OID="WC.LB_STRESC_K">
        <RangeCheck Comparator="EQ" SoftHard="Soft" def:ItemOID="IT.LB.LBTESTCD">
          <CheckValue>K</CheckValue>
        </RangeCheck>
      </def:WhereClauseDef>
      <def:WhereClauseDef OID="WC.LB_STRESC_MCHC">
        <RangeCheck Comparator="EQ" SoftHard="Soft" def:ItemOID="IT.LB.LBTESTCD">
          <CheckValue>MCHC</CheckValue>
        </RangeCheck>
      </def:WhereClauseDef>
      <def:WhereClauseDef OID="WC.LB_STRESC_RBC">
        <RangeCheck Comparator="EQ" SoftHard="Soft" def:ItemOID="IT.LB.LBTESTCD">
          <CheckValue>RBC</CheckValue>
        </RangeCheck>
      </def:WhereClauseDef>
      <def:WhereClauseDef OID="WC.LB_STRESC_SET1">
        <RangeCheck Comparator="IN" SoftHard="Soft" def:ItemOID="IT.LB.LBTESTCD">
          <CheckValue>BASO</CheckValue>
          <CheckValue>EOS</CheckValue>
          <CheckValue>LYM</CheckValue>
          <CheckValue>MONO</CheckValue>
          <CheckValue>RBC</CheckValue>
          <CheckValue>TSH</CheckValue>
          <CheckValue>WBC</CheckValue>
        </RangeCheck>
      </def:WhereClauseDef>
      <def:WhereClauseDef OID="WC.LB_STRESC_SET2">
        <RangeCheck Comparator="IN" SoftHard="Soft" def:ItemOID="IT.LB.LBTESTCD">
          <CheckValue>SPGRAV</CheckValue>
          <CheckValue>UREAN</CheckValue>
        </RangeCheck>
      </def:WhereClauseDef>
      <def:WhereClauseDef OID="WC.LB_STRESC_SET3">
        <RangeCheck Comparator="IN" SoftHard="Soft" def:ItemOID="IT.LB.LBTESTCD">
          <CheckValue>CA</CheckValue>
          <CheckValue>CHOL</CheckValue>
          <CheckValue>MCH</CheckValue>
          <CheckValue>PHOS</CheckValue>
        </RangeCheck>
      </def:WhereClauseDef>
      <def:WhereClauseDef OID="WC.LB_STRESC_SET4">
        <RangeCheck Comparator="IN" SoftHard="Soft" def:ItemOID="IT.LB.LBTESTCD">
          <CheckValue>ANISO</CheckValue>
          <CheckValue>KETONES</CheckValue>
          <CheckValue>MACROCY</CheckValue>
          <CheckValue>PH</CheckValue>
          <CheckValue>POIKILO</CheckValue>
          <CheckValue>UROBIL</CheckValue>
        </RangeCheck>
      </def:WhereClauseDef>
      <def:WhereClauseDef OID="WC.LB_STRESC_SET5">
        <RangeCheck Comparator="IN" SoftHard="Soft" def:ItemOID="IT.LB.LBTESTCD">
          <CheckValue>ALB</CheckValue>
          <CheckValue>ALT</CheckValue>
          <CheckValue>AST</CheckValue>
          <CheckValue>GGT</CheckValue>
          <CheckValue>PROT</CheckValue>
        </RangeCheck>
      </def:WhereClauseDef>
      <def:WhereClauseDef OID="WC.LB_STRESC_SET6">
        <RangeCheck Comparator="IN" SoftHard="Soft" def:ItemOID="IT.LB.LBTESTCD">
          <CheckValue>ALP</CheckValue>
          <CheckValue>CL</CheckValue>
          <CheckValue>MCV</CheckValue>
          <CheckValue>PLAT</CheckValue>
          <CheckValue>SODIUM</CheckValue>
        </RangeCheck>
      </def:WhereClauseDef>
      <def:WhereClauseDef OID="WC.LB_STRESC_URATE">
        <RangeCheck Comparator="EQ" SoftHard="Soft" def:ItemOID="IT.LB.LBTESTCD">
          <CheckValue>URATE</CheckValue>
        </RangeCheck>
      </def:WhereClauseDef>
      <def:WhereClauseDef OID="WC.LB_STRESC_VITB12">
        <RangeCheck Comparator="EQ" SoftHard="Soft" def:ItemOID="IT.LB.LBTESTCD">
          <CheckValue>VITB12</CheckValue>
        </RangeCheck>
      </def:WhereClauseDef>
      <def:WhereClauseDef OID="WC.LB_STRESU_UNITS_ALB_STD">
        <RangeCheck Comparator="EQ" SoftHard="Soft" def:ItemOID="IT.LB.LBTESTCD">
          <CheckValue>ALB</CheckValue>
        </RangeCheck>
      </def:WhereClauseDef>
      <def:WhereClauseDef OID="WC.LB_STRESU_UNITS_ALP_STD">
        <RangeCheck Comparator="EQ" SoftHard="Soft" def:ItemOID="IT.LB.LBTESTCD">
          <CheckValue>ALP</CheckValue>
        </RangeCheck>
      </def:WhereClauseDef>
      <def:WhereClauseDef OID="WC.LB_STRESU_UNITS_ALT_STD">
        <RangeCheck Comparator="EQ" SoftHard="Soft" def:ItemOID="IT.LB.LBTESTCD">
          <CheckValue>ALT</CheckValue>
        </RangeCheck>
      </def:WhereClauseDef>
      <def:WhereClauseDef OID="WC.LB_STRESU_UNITS_AST_STD">
        <RangeCheck Comparator="EQ" SoftHard="Soft" def:ItemOID="IT.LB.LBTESTCD">
          <CheckValue>AST</CheckValue>
        </RangeCheck>
      </def:WhereClauseDef>
      <def:WhereClauseDef OID="WC.LB_STRESU_UNITS_BASO_STD">
        <RangeCheck Comparator="EQ" SoftHard="Soft" def:ItemOID="IT.LB.LBTESTCD">
          <CheckValue>BASO</CheckValue>
        </RangeCheck>
      </def:WhereClauseDef>
      <def:WhereClauseDef OID="WC.LB_STRESU_UNITS_BILI_STD">
        <RangeCheck Comparator="EQ" SoftHard="Soft" def:ItemOID="IT.LB.LBTESTCD">
          <CheckValue>BILI</CheckValue>
        </RangeCheck>
      </def:WhereClauseDef>
      <def:WhereClauseDef OID="WC.LB_STRESU_UNITS_CA_STD">
        <RangeCheck Comparator="EQ" SoftHard="Soft" def:ItemOID="IT.LB.LBTESTCD">
          <CheckValue>CA</CheckValue>
        </RangeCheck>
      </def:WhereClauseDef>
      <def:WhereClauseDef OID="WC.LB_STRESU_UNITS_CHOL_STD">
        <RangeCheck Comparator="EQ" SoftHard="Soft" def:ItemOID="IT.LB.LBTESTCD">
          <CheckValue>CHOL</CheckValue>
        </RangeCheck>
      </def:WhereClauseDef>
      <def:WhereClauseDef OID="WC.LB_STRESU_UNITS_CK_STD">
        <RangeCheck Comparator="EQ" SoftHard="Soft" def:ItemOID="IT.LB.LBTESTCD">
          <CheckValue>CK</CheckValue>
        </RangeCheck>
      </def:WhereClauseDef>
      <def:WhereClauseDef OID="WC.LB_STRESU_UNITS_CL_STD">
        <RangeCheck Comparator="EQ" SoftHard="Soft" def:ItemOID="IT.LB.LBTESTCD">
          <CheckValue>CL</CheckValue>
        </RangeCheck>
      </def:WhereClauseDef>
      <def:WhereClauseDef OID="WC.LB_STRESU_UNITS_CREAT_STD">
        <RangeCheck Comparator="EQ" SoftHard="Soft" def:ItemOID="IT.LB.LBTESTCD">
          <CheckValue>CREAT</CheckValue>
        </RangeCheck>
      </def:WhereClauseDef>
      <def:WhereClauseDef OID="WC.LB_STRESU_UNITS_EOS_STD">
        <RangeCheck Comparator="EQ" SoftHard="Soft" def:ItemOID="IT.LB.LBTESTCD">
          <CheckValue>EOS</CheckValue>
        </RangeCheck>
      </def:WhereClauseDef>
      <def:WhereClauseDef OID="WC.LB_STRESU_UNITS_GGT_STD">
        <RangeCheck Comparator="EQ" SoftHard="Soft" def:ItemOID="IT.LB.LBTESTCD">
          <CheckValue>GGT</CheckValue>
        </RangeCheck>
      </def:WhereClauseDef>
      <def:WhereClauseDef OID="WC.LB_STRESU_UNITS_GLUC_STD">
        <RangeCheck Comparator="EQ" SoftHard="Soft" def:ItemOID="IT.LB.LBTESTCD">
          <CheckValue>GLUC</CheckValue>
        </RangeCheck>
      </def:WhereClauseDef>
      <def:WhereClauseDef OID="WC.LB_STRESU_UNITS_HGB_STD">
        <RangeCheck Comparator="EQ" SoftHard="Soft" def:ItemOID="IT.LB.LBTESTCD">
          <CheckValue>HGB</CheckValue>
        </RangeCheck>
      </def:WhereClauseDef>
      <def:WhereClauseDef OID="WC.LB_STRESU_UNITS_K_STD">
        <RangeCheck Comparator="EQ" SoftHard="Soft" def:ItemOID="IT.LB.LBTESTCD">
          <CheckValue>K</CheckValue>
        </RangeCheck>
      </def:WhereClauseDef>
      <def:WhereClauseDef OID="WC.LB_STRESU_UNITS_LYM_STD">
        <RangeCheck Comparator="EQ" SoftHard="Soft" def:ItemOID="IT.LB.LBTESTCD">
          <CheckValue>LYM</CheckValue>
        </RangeCheck>
      </def:WhereClauseDef>
      <def:WhereClauseDef OID="WC.LB_STRESU_UNITS_MCHC_STD">
        <RangeCheck Comparator="EQ" SoftHard="Soft" def:ItemOID="IT.LB.LBTESTCD">
          <CheckValue>MCHC</CheckValue>
        </RangeCheck>
      </def:WhereClauseDef>
      <def:WhereClauseDef OID="WC.LB_STRESU_UNITS_MCH_STD">
        <RangeCheck Comparator="EQ" SoftHard="Soft" def:ItemOID="IT.LB.LBTESTCD">
          <CheckValue>MCH</CheckValue>
        </RangeCheck>
      </def:WhereClauseDef>
      <def:WhereClauseDef OID="WC.LB_STRESU_UNITS_MCV_STD">
        <RangeCheck Comparator="EQ" SoftHard="Soft" def:ItemOID="IT.LB.LBTESTCD">
          <CheckValue>MCV</CheckValue>
        </RangeCheck>
      </def:WhereClauseDef>
      <def:WhereClauseDef OID="WC.LB_STRESU_UNITS_MONO_STD">
        <RangeCheck Comparator="EQ" SoftHard="Soft" def:ItemOID="IT.LB.LBTESTCD">
          <CheckValue>MONO</CheckValue>
        </RangeCheck>
      </def:WhereClauseDef>
      <def:WhereClauseDef OID="WC.LB_STRESU_UNITS_PHOS_STD">
        <RangeCheck Comparator="EQ" SoftHard="Soft" def:ItemOID="IT.LB.LBTESTCD">
          <CheckValue>PHOS</CheckValue>
        </RangeCheck>
      </def:WhereClauseDef>
      <def:WhereClauseDef OID="WC.LB_STRESU_UNITS_PLAT_STD">
        <RangeCheck Comparator="EQ" SoftHard="Soft" def:ItemOID="IT.LB.LBTESTCD">
          <CheckValue>PLAT</CheckValue>
        </RangeCheck>
      </def:WhereClauseDef>
      <def:WhereClauseDef OID="WC.LB_STRESU_UNITS_PROT_STD">
        <RangeCheck Comparator="EQ" SoftHard="Soft" def:ItemOID="IT.LB.LBTESTCD">
          <CheckValue>PROT</CheckValue>
        </RangeCheck>
      </def:WhereClauseDef>
      <def:WhereClauseDef OID="WC.LB_STRESU_UNITS_RBC_STD">
        <RangeCheck Comparator="EQ" SoftHard="Soft" def:ItemOID="IT.LB.LBTESTCD">
          <CheckValue>RBC</CheckValue>
        </RangeCheck>
      </def:WhereClauseDef>
      <def:WhereClauseDef OID="WC.LB_STRESU_UNITS_SODIUM_STD">
        <RangeCheck Comparator="EQ" SoftHard="Soft" def:ItemOID="IT.LB.LBTESTCD">
          <CheckValue>SODIUM</CheckValue>
        </RangeCheck>
      </def:WhereClauseDef>
      <def:WhereClauseDef OID="WC.LB_STRESU_UNITS_TSH_STD">
        <RangeCheck Comparator="EQ" SoftHard="Soft" def:ItemOID="IT.LB.LBTESTCD">
          <CheckValue>TSH</CheckValue>
        </RangeCheck>
      </def:WhereClauseDef>
      <def:WhereClauseDef OID="WC.LB_STRESU_UNITS_URATE_STD">
        <RangeCheck Comparator="EQ" SoftHard="Soft" def:ItemOID="IT.LB.LBTESTCD">
          <CheckValue>URATE</CheckValue>
        </RangeCheck>
      </def:WhereClauseDef>
      <def:WhereClauseDef OID="WC.LB_STRESU_UNITS_UREAN_STD">
        <RangeCheck Comparator="EQ" SoftHard="Soft" def:ItemOID="IT.LB.LBTESTCD">
          <CheckValue>UREAN</CheckValue>
        </RangeCheck>
      </def:WhereClauseDef>
      <def:WhereClauseDef OID="WC.LB_STRESU_UNITS_VITB12_STD">
        <RangeCheck Comparator="EQ" SoftHard="Soft" def:ItemOID="IT.LB.LBTESTCD">
          <CheckValue>VITB12</CheckValue>
        </RangeCheck>
      </def:WhereClauseDef>
      <def:WhereClauseDef OID="WC.LB_STRESU_UNITS_WBC_STD">
        <RangeCheck Comparator="EQ" SoftHard="Soft" def:ItemOID="IT.LB.LBTESTCD">
          <CheckValue>WBC</CheckValue>
        </RangeCheck>
      </def:WhereClauseDef>
      <def:WhereClauseDef OID="WC.NVCLSIG">
        <RangeCheck Comparator="EQ" SoftHard="Soft" def:ItemOID="IT.SUPPNV.QNAM">
          <CheckValue>NVCLSIG</CheckValue>
        </RangeCheck>
      </def:WhereClauseDef>
      <def:WhereClauseDef OID="WC.OECLSIG">
        <RangeCheck Comparator="EQ" SoftHard="Soft" def:ItemOID="IT.SUPPOE.QNAM">
          <CheckValue>OECLSIG</CheckValue>
        </RangeCheck>
      </def:WhereClauseDef>
      <def:WhereClauseDef OID="WC.OEORRES1">
        <RangeCheck Comparator="EQ" SoftHard="Soft" def:ItemOID="IT.OE.OETESTCD">
          <CheckValue>INTP</CheckValue>
        </RangeCheck>
      </def:WhereClauseDef>
      <def:WhereClauseDef OID="WC.OEORRES2">
        <RangeCheck Comparator="EQ" SoftHard="Soft" def:ItemOID="IT.OE.OETESTCD">
          <CheckValue>ABDETAIL</CheckValue>
        </RangeCheck>
      </def:WhereClauseDef>
      <def:WhereClauseDef OID="WC.PHQ0101-09">
        <RangeCheck Comparator="IN" SoftHard="Soft" def:ItemOID="IT.QSPH.QSTESTCD">
          <CheckValue>PHQ0101</CheckValue>
          <CheckValue>PHQ0102</CheckValue>
          <CheckValue>PHQ0103</CheckValue>
          <CheckValue>PHQ0104</CheckValue>
          <CheckValue>PHQ0105</CheckValue>
          <CheckValue>PHQ0106</CheckValue>
          <CheckValue>PHQ0107</CheckValue>
          <CheckValue>PHQ0108</CheckValue>
          <CheckValue>PHQ0109</CheckValue>
        </RangeCheck>
      </def:WhereClauseDef>
      <def:WhereClauseDef OID="WC.PHQ0101-09S">
        <RangeCheck Comparator="IN" SoftHard="Soft" def:ItemOID="IT.QSPH.QSTESTCD">
          <CheckValue>PHQ0101</CheckValue>
          <CheckValue>PHQ0102</CheckValue>
          <CheckValue>PHQ0103</CheckValue>
          <CheckValue>PHQ0104</CheckValue>
          <CheckValue>PHQ0105</CheckValue>
          <CheckValue>PHQ0106</CheckValue>
          <CheckValue>PHQ0107</CheckValue>
          <CheckValue>PHQ0108</CheckValue>
          <CheckValue>PHQ0109</CheckValue>
        </RangeCheck>
      </def:WhereClauseDef>
      <def:WhereClauseDef OID="WC.PHQ0110">
        <RangeCheck Comparator="EQ" SoftHard="Soft" def:ItemOID="IT.QSPH.QSTESTCD">
          <CheckValue>PHQ0110</CheckValue>
        </RangeCheck>
      </def:WhereClauseDef>
      <def:WhereClauseDef OID="WC.PHQ0110S">
        <RangeCheck Comparator="EQ" SoftHard="Soft" def:ItemOID="IT.QSPH.QSTESTCD">
          <CheckValue>PHQ0110</CheckValue>
        </RangeCheck>
      </def:WhereClauseDef>
      <def:WhereClauseDef OID="WC.PHQ0111">
        <RangeCheck Comparator="EQ" SoftHard="Soft" def:ItemOID="IT.QSPH.QSTESTCD">
          <CheckValue>PHQ0111</CheckValue>
        </RangeCheck>
      </def:WhereClauseDef>
      <def:WhereClauseDef OID="WC.PHQ0111S">
        <RangeCheck Comparator="EQ" SoftHard="Soft" def:ItemOID="IT.QSPH.QSTESTCD">
          <CheckValue>PHQ0111</CheckValue>
        </RangeCheck>
      </def:WhereClauseDef>
      <def:WhereClauseDef OID="WC.PULSE">
        <RangeCheck Comparator="EQ" SoftHard="Soft" def:ItemOID="IT.VS.VSTESTCD">
          <CheckValue>PULSE</CheckValue>
        </RangeCheck>
      </def:WhereClauseDef>
      <def:WhereClauseDef OID="WC.PULSEU">
        <RangeCheck Comparator="EQ" SoftHard="Soft" def:ItemOID="IT.VS.VSTESTCD">
          <CheckValue>PULSE</CheckValue>
        </RangeCheck>
      </def:WhereClauseDef>
      <def:WhereClauseDef OID="WC.RACE">
        <RangeCheck Comparator="NE" SoftHard="Soft" def:ItemOID="IT.DM.RACE">
          <CheckValue>MULTIPLE</CheckValue>
        </RangeCheck>
      </def:WhereClauseDef>
      <def:WhereClauseDef OID="WC.RACE1">
        <RangeCheck Comparator="EQ" SoftHard="Soft" def:ItemOID="IT.SUPPDM.QNAM">
          <CheckValue>RACE1</CheckValue>
        </RangeCheck>
      </def:WhereClauseDef>
      <def:WhereClauseDef OID="WC.RACE2">
        <RangeCheck Comparator="EQ" SoftHard="Soft" def:ItemOID="IT.SUPPDM.QNAM">
          <CheckValue>RACE2</CheckValue>
        </RangeCheck>
      </def:WhereClauseDef>
      <def:WhereClauseDef OID="WC.RACE3">
        <RangeCheck Comparator="EQ" SoftHard="Soft" def:ItemOID="IT.SUPPDM.QNAM">
          <CheckValue>RACE3</CheckValue>
        </RangeCheck>
      </def:WhereClauseDef>
      <def:WhereClauseDef OID="WC.RACE4">
        <RangeCheck Comparator="EQ" SoftHard="Soft" def:ItemOID="IT.SUPPDM.QNAM">
          <CheckValue>RACE4</CheckValue>
        </RangeCheck>
      </def:WhereClauseDef>
      <def:WhereClauseDef OID="WC.RACE5">
        <RangeCheck Comparator="EQ" SoftHard="Soft" def:ItemOID="IT.SUPPDM.QNAM">
          <CheckValue>RACE5</CheckValue>
        </RangeCheck>
      </def:WhereClauseDef>
      <def:WhereClauseDef OID="WC.RACEMULT">
        <RangeCheck Comparator="EQ" SoftHard="Soft" def:ItemOID="IT.DM.RACE">
          <CheckValue>MULTIPLE</CheckValue>
        </RangeCheck>
      </def:WhereClauseDef>
      <def:WhereClauseDef OID="WC.TEMP">
        <RangeCheck Comparator="EQ" SoftHard="Soft" def:ItemOID="IT.VS.VSTESTCD">
          <CheckValue>TEMP</CheckValue>
        </RangeCheck>
      </def:WhereClauseDef>
      <def:WhereClauseDef OID="WC.TEMPU">
        <RangeCheck Comparator="EQ" SoftHard="Soft" def:ItemOID="IT.VS.VSTESTCD">
          <CheckValue>TEMP</CheckValue>
        </RangeCheck>
      </def:WhereClauseDef>
      <def:WhereClauseDef OID="WC.TS_BLIND">
        <RangeCheck Comparator="EQ" SoftHard="Soft" def:ItemOID="IT.TS.TSPARMCD">
          <CheckValue>TBLIND</CheckValue>
        </RangeCheck>
      </def:WhereClauseDef>
      <def:WhereClauseDef OID="WC.TS_CONTROL">
        <RangeCheck Comparator="EQ" SoftHard="Soft" def:ItemOID="IT.TS.TSPARMCD">
          <CheckValue>TCNTRL</CheckValue>
        </RangeCheck>
      </def:WhereClauseDef>
      <def:WhereClauseDef OID="WC.TS_COUNTRY">
        <RangeCheck Comparator="EQ" SoftHard="Soft" def:ItemOID="IT.TS.TSPARMCD">
          <CheckValue>FCNTRY</CheckValue>
        </RangeCheck>
      </def:WhereClauseDef>
      <def:WhereClauseDef OID="WC.TS_DATE">
        <RangeCheck Comparator="IN" SoftHard="Soft" def:ItemOID="IT.TS.TSPARMCD">
          <CheckValue>DCUTDTC</CheckValue>
          <CheckValue>SENDTC</CheckValue>
          <CheckValue>SSTDTC</CheckValue>
        </RangeCheck>
      </def:WhereClauseDef>
      <def:WhereClauseDef OID="WC.TS_DURATION">
        <RangeCheck Comparator="EQ" SoftHard="Soft" def:ItemOID="IT.TS.TSPARMCD">
          <CheckValue>TS_DURATION</CheckValue>
        </RangeCheck>
      </def:WhereClauseDef>
      <def:WhereClauseDef OID="WC.TS_FLOAT">
        <RangeCheck Comparator="EQ" SoftHard="Soft" def:ItemOID="IT.TS.TSPARMCD">
          <CheckValue>TS_FLOAT</CheckValue>
        </RangeCheck>
      </def:WhereClauseDef>
      <def:WhereClauseDef OID="WC.TS_FREQ">
        <RangeCheck Comparator="EQ" SoftHard="Soft" def:ItemOID="IT.TS.TSPARMCD">
          <CheckValue>DOSFRQ</CheckValue>
        </RangeCheck>
      </def:WhereClauseDef>
      <def:WhereClauseDef OID="WC.TS_FRM">
        <RangeCheck Comparator="EQ" SoftHard="Soft" def:ItemOID="IT.TS.TSPARMCD">
          <CheckValue>DOSFRM</CheckValue>
        </RangeCheck>
      </def:WhereClauseDef>
      <def:WhereClauseDef OID="WC.TS_INDIC">
        <RangeCheck Comparator="EQ" SoftHard="Soft" def:ItemOID="IT.TS.TSPARMCD">
          <CheckValue>INDIC</CheckValue>
        </RangeCheck>
      </def:WhereClauseDef>
      <def:WhereClauseDef OID="WC.TS_INTEGER">
        <RangeCheck Comparator="IN" SoftHard="Soft" def:ItemOID="IT.TS.TSPARMCD">
          <CheckValue>ACTSUB</CheckValue>
          <CheckValue>AGEMAX</CheckValue>
          <CheckValue>AGEMIN</CheckValue>
          <CheckValue>DOSE</CheckValue>
          <CheckValue>NARMS</CheckValue>
          <CheckValue>PLANSUB</CheckValue>
        </RangeCheck>
      </def:WhereClauseDef>
      <def:WhereClauseDef OID="WC.TS_INTTYPE">
        <RangeCheck Comparator="EQ" SoftHard="Soft" def:ItemOID="IT.TS.TSPARMCD">
          <CheckValue>INTTYPE</CheckValue>
        </RangeCheck>
      </def:WhereClauseDef>
      <def:WhereClauseDef OID="WC.TS_MODEL">
        <RangeCheck Comparator="EQ" SoftHard="Soft" def:ItemOID="IT.TS.TSPARMCD">
          <CheckValue>INTMODEL</CheckValue>
        </RangeCheck>
      </def:WhereClauseDef>
      <def:WhereClauseDef OID="WC.TS_OBJPRIM">
        <RangeCheck Comparator="EQ" SoftHard="Soft" def:ItemOID="IT.TS.TSPARMCD">
          <CheckValue>OBJPRIM</CheckValue>
        </RangeCheck>
      </def:WhereClauseDef>
      <def:WhereClauseDef OID="WC.TS_OBJSEC">
        <RangeCheck Comparator="EQ" SoftHard="Soft" def:ItemOID="IT.TS.TSPARMCD">
          <CheckValue>OBJSEC</CheckValue>
        </RangeCheck>
      </def:WhereClauseDef>
      <def:WhereClauseDef OID="WC.TS_OUTMSPRI">
        <RangeCheck Comparator="EQ" SoftHard="Soft" def:ItemOID="IT.TS.TSPARMCD">
          <CheckValue>OUTMSPRI</CheckValue>
        </RangeCheck>
      </def:WhereClauseDef>
      <def:WhereClauseDef OID="WC.TS_PCLAS">
        <RangeCheck Comparator="EQ" SoftHard="Soft" def:ItemOID="IT.TS.TSPARMCD">
          <CheckValue>PCLAS</CheckValue>
        </RangeCheck>
      </def:WhereClauseDef>
      <def:WhereClauseDef OID="WC.TS_PHASE">
        <RangeCheck Comparator="EQ" SoftHard="Soft" def:ItemOID="IT.TS.TSPARMCD">
          <CheckValue>TPHASE</CheckValue>
        </RangeCheck>
      </def:WhereClauseDef>
      <def:WhereClauseDef OID="WC.TS_REGID">
        <RangeCheck Comparator="EQ" SoftHard="Soft" def:ItemOID="IT.TS.TSPARMCD">
          <CheckValue>REGID</CheckValue>
        </RangeCheck>
      </def:WhereClauseDef>
      <def:WhereClauseDef OID="WC.TS_ROUTE">
        <RangeCheck Comparator="EQ" SoftHard="Soft" def:ItemOID="IT.TS.TSPARMCD">
          <CheckValue>ROUTE</CheckValue>
        </RangeCheck>
      </def:WhereClauseDef>
      <def:WhereClauseDef OID="WC.TS_SDTM">
        <RangeCheck Comparator="IN" SoftHard="Soft" def:ItemOID="IT.TS.TSPARMCD">
          <CheckValue>SDTIGVER</CheckValue>
          <CheckValue>SDTMVER</CheckValue>
        </RangeCheck>
      </def:WhereClauseDef>
      <def:WhereClauseDef OID="WC.TS_SEX">
        <RangeCheck Comparator="EQ" SoftHard="Soft" def:ItemOID="IT.TS.TSPARMCD">
          <CheckValue>SEXPOP</CheckValue>
        </RangeCheck>
      </def:WhereClauseDef>
      <def:WhereClauseDef OID="WC.TS_SPONSOR">
        <RangeCheck Comparator="EQ" SoftHard="Soft" def:ItemOID="IT.TS.TSPARMCD">
          <CheckValue>SPONSOR</CheckValue>
        </RangeCheck>
      </def:WhereClauseDef>
      <def:WhereClauseDef OID="WC.TS_STOPRULE">
        <RangeCheck Comparator="EQ" SoftHard="Soft" def:ItemOID="IT.TS.TSPARMCD">
          <CheckValue>STOPRULE</CheckValue>
        </RangeCheck>
      </def:WhereClauseDef>
      <def:WhereClauseDef OID="WC.TS_STYPE">
        <RangeCheck Comparator="EQ" SoftHard="Soft" def:ItemOID="IT.TS.TSPARMCD">
          <CheckValue>STYPE</CheckValue>
        </RangeCheck>
      </def:WhereClauseDef>
      <def:WhereClauseDef OID="WC.TS_TDIGRP">
        <RangeCheck Comparator="EQ" SoftHard="Soft" def:ItemOID="IT.TS.TSPARMCD">
          <CheckValue>TDIGRP</CheckValue>
        </RangeCheck>
      </def:WhereClauseDef>
      <def:WhereClauseDef OID="WC.TS_TINDTP">
        <RangeCheck Comparator="EQ" SoftHard="Soft" def:ItemOID="IT.TS.TSPARMCD">
          <CheckValue>TINDTP</CheckValue>
        </RangeCheck>
      </def:WhereClauseDef>
      <def:WhereClauseDef OID="WC.TS_TITLE">
        <RangeCheck Comparator="EQ" SoftHard="Soft" def:ItemOID="IT.TS.TSPARMCD">
          <CheckValue>TITLE</CheckValue>
        </RangeCheck>
      </def:WhereClauseDef>
      <def:WhereClauseDef OID="WC.TS_TRT">
        <RangeCheck Comparator="EQ" SoftHard="Soft" def:ItemOID="IT.TS.TSPARMCD">
          <CheckValue>TRT</CheckValue>
        </RangeCheck>
      </def:WhereClauseDef>
      <def:WhereClauseDef OID="WC.TS_TTYPE">
        <RangeCheck Comparator="EQ" SoftHard="Soft" def:ItemOID="IT.TS.TSPARMCD">
          <CheckValue>TTYPE</CheckValue>
        </RangeCheck>
      </def:WhereClauseDef>
      <def:WhereClauseDef OID="WC.TS_UNIT">
        <RangeCheck Comparator="EQ" SoftHard="Soft" def:ItemOID="IT.TS.TSPARMCD">
          <CheckValue>DOSU</CheckValue>
        </RangeCheck>
      </def:WhereClauseDef>
      <def:WhereClauseDef OID="WC.TS_YN">
        <RangeCheck Comparator="IN" SoftHard="Soft" def:ItemOID="IT.TS.TSPARMCD">
          <CheckValue>ADAPT</CheckValue>
          <CheckValue>ADDON</CheckValue>
          <CheckValue>HLTSUBJI</CheckValue>
          <CheckValue>RANDOM</CheckValue>
        </RangeCheck>
      </def:WhereClauseDef>
      <def:WhereClauseDef OID="WC.WEIGHT">
        <RangeCheck Comparator="EQ" SoftHard="Soft" def:ItemOID="IT.VS.VSTESTCD">
          <CheckValue>WEIGHT</CheckValue>
        </RangeCheck>
      </def:WhereClauseDef>
      <def:WhereClauseDef OID="WC.WEIGHTU">
        <RangeCheck Comparator="EQ" SoftHard="Soft" def:ItemOID="IT.VS.VSTESTCD">
          <CheckValue>WEIGHT</CheckValue>
        </RangeCheck>
      </def:WhereClauseDef>


      <!-- ************************************************************************************ -->
      <!-- ItemGroupDef Definitions Section (Datasets and and first set of variable properties) -->
      <!-- ************************************************************************************ -->

      <!-- Dataset Definition (TA) -->
      <ItemGroupDef OID="IG.TA" Name="TA" Domain="TA"
        Repeating="No" IsReferenceData="Yes" SASDatasetName="TA"
        def:Structure="One record per planned Element per Arm"
        Purpose="Tabulation" def:StandardOID="STD.1"
 def:ArchiveLocationID="LF.TA">
        <Description>
          <TranslatedText xml:lang="en">Trial Arms</TranslatedText>
        </Description>
        <ItemRef ItemOID="IT.TA.STUDYID" Mandatory="Yes" OrderNumber="1" KeySequence="1" Role="Identifier"/>
        <ItemRef ItemOID="IT.TA.DOMAIN" Mandatory="Yes" OrderNumber="2" Role="Identifier"/>
        <ItemRef ItemOID="IT.TA.ARMCD" Mandatory="Yes" OrderNumber="3" KeySequence="2" Role="Topic"/>
        <ItemRef ItemOID="IT.TA.ARM" Mandatory="Yes" OrderNumber="4" Role="Synonym Qualifier"/>
        <ItemRef ItemOID="IT.TA.TAETORD" Mandatory="Yes" OrderNumber="5" KeySequence="3" Role="Timing"/>
        <ItemRef ItemOID="IT.TA.ETCD" Mandatory="Yes" OrderNumber="6" Role="Record Qualifier"/>
        <ItemRef ItemOID="IT.TA.ELEMENT" Mandatory="No" OrderNumber="7" Role="Synonym Qualifier"/>
        <ItemRef ItemOID="IT.TA.TABRANCH" Mandatory="No" OrderNumber="8" Role="Rule"/>
        <ItemRef ItemOID="IT.TA.TATRANS" Mandatory="No" OrderNumber="9" Role="Rule"/>
        <ItemRef ItemOID="IT.TA.EPOCH" Mandatory="Yes" OrderNumber="10" MethodOID="MT.EPOCH" Role="Timing"/>
        <def:Class Name="TRIAL DESIGN"/>
        <def:leaf ID="LF.TA" xlink:href="ta.xpt">
          <def:title>ta.xpt</def:title>
        </def:leaf>
      </ItemGroupDef>
      <!-- Dataset Definition (TE) -->
      <ItemGroupDef OID="IG.TE" Name="TE" Domain="TE"
        Repeating="No" IsReferenceData="Yes" SASDatasetName="TE"
        def:Structure="One record per planned Element"
        Purpose="Tabulation" def:StandardOID="STD.1"
 def:ArchiveLocationID="LF.TE">
        <Description>
          <TranslatedText xml:lang="en">Trial Elements</TranslatedText>
        </Description>
        <ItemRef ItemOID="IT.TE.STUDYID" Mandatory="Yes" OrderNumber="1" KeySequence="1" Role="Identifier"/>
        <ItemRef ItemOID="IT.TE.DOMAIN" Mandatory="Yes" OrderNumber="2" Role="Identifier"/>
        <ItemRef ItemOID="IT.TE.ETCD" Mandatory="Yes" OrderNumber="3" KeySequence="2" Role="Topic"/>
        <ItemRef ItemOID="IT.TE.ELEMENT" Mandatory="Yes" OrderNumber="4" Role="Synonym Qualifier"/>
        <ItemRef ItemOID="IT.TE.TESTRL" Mandatory="Yes" OrderNumber="5" Role="Rule"/>
        <ItemRef ItemOID="IT.TE.TEENRL" Mandatory="No" OrderNumber="6" Role="Rule"/>
        <def:Class Name="TRIAL DESIGN"/>
        <def:leaf ID="LF.TE" xlink:href="te.xpt">
          <def:title>te.xpt</def:title>
        </def:leaf>
      </ItemGroupDef>
      <!-- Dataset Definition (TI) -->
      <ItemGroupDef OID="IG.TI" Name="TI" Domain="TI"
        Repeating="No" IsReferenceData="Yes" SASDatasetName="TI"
        def:Structure="One record per I/E criterion"
        Purpose="Tabulation" def:StandardOID="STD.1"
 def:ArchiveLocationID="LF.TI">
        <Description>
          <TranslatedText xml:lang="en">Trial Inclusion/Exclusion Criteria</TranslatedText>
        </Description>
        <ItemRef ItemOID="IT.TI.STUDYID" Mandatory="Yes" OrderNumber="1" KeySequence="1" Role="Identifier"/>
        <ItemRef ItemOID="IT.TI.DOMAIN" Mandatory="Yes" OrderNumber="2" Role="Identifier"/>
        <ItemRef ItemOID="IT.TI.IETESTCD" Mandatory="Yes" OrderNumber="3" KeySequence="2" Role="Topic"/>
        <ItemRef ItemOID="IT.TI.IETEST" Mandatory="Yes" OrderNumber="4" Role="Synonym Qualifier"/>
        <ItemRef ItemOID="IT.TI.IECAT" Mandatory="Yes" OrderNumber="5" Role="Grouping Qualifier"/>
        <ItemRef ItemOID="IT.TI.TIVERS" Mandatory="No" OrderNumber="6" KeySequence="3" Role="Record Qualifier"/>
        <def:Class Name="TRIAL DESIGN"/>
        <def:leaf ID="LF.TI" xlink:href="ti.xpt">
          <def:title>ti.xpt</def:title>
        </def:leaf>
      </ItemGroupDef>
      <!-- Dataset Definition (TS) -->
      <ItemGroupDef OID="IG.TS" Name="TS" Domain="TS"
        Repeating="No" IsReferenceData="Yes" SASDatasetName="TS"
        def:Structure="One record per trial summary parameter value"
        Purpose="Tabulation" def:StandardOID="STD.1"
 def:ArchiveLocationID="LF.TS">
        <Description>
          <TranslatedText xml:lang="en">Trial Summary</TranslatedText>
        </Description>
        <ItemRef ItemOID="IT.TS.STUDYID" Mandatory="Yes" OrderNumber="1" KeySequence="1" Role="Identifier"/>
        <ItemRef ItemOID="IT.TS.DOMAIN" Mandatory="Yes" OrderNumber="2" Role="Identifier"/>
        <ItemRef ItemOID="IT.TS.TSSEQ" Mandatory="Yes" OrderNumber="3" KeySequence="4" MethodOID="MT.TSSEQ" Role="Identifier"/>
        <ItemRef ItemOID="IT.TS.TSGRPID" Mandatory="No" OrderNumber="4" Role="Identifier"/>
        <ItemRef ItemOID="IT.TS.TSPARMCD" Mandatory="Yes" OrderNumber="5" KeySequence="2" Role="Topic"/>
        <ItemRef ItemOID="IT.TS.TSPARM" Mandatory="Yes" OrderNumber="6" Role="Synonym Qualifier"/>
        <ItemRef ItemOID="IT.TS.TSVAL" Mandatory="No" OrderNumber="7" KeySequence="3" Role="Result Qualifier"/>
        <ItemRef ItemOID="IT.TS.TSVALNF" Mandatory="No" OrderNumber="8" Role="Result Qualifier"/>
        <ItemRef ItemOID="IT.TS.TSVALCD" Mandatory="No" OrderNumber="9" Role="Result Qualifier"/>
        <ItemRef ItemOID="IT.TS.TSVCDREF" Mandatory="No" OrderNumber="10" Role="Result Qualifier"/>
        <ItemRef ItemOID="IT.TS.TSVCDVER" Mandatory="No" OrderNumber="11" Role="Result Qualifier"/>
        <def:Class Name="TRIAL DESIGN"/>
        <def:leaf ID="LF.TS" xlink:href="ts.xpt">
          <def:title>ts.xpt</def:title>
        </def:leaf>
      </ItemGroupDef>
      <!-- Dataset Definition (TV) -->
      <ItemGroupDef OID="IG.TV" Name="TV" Domain="TV"
        Repeating="No" IsReferenceData="Yes" SASDatasetName="TV"
        def:Structure="One record per planned Visit per Arm"
        Purpose="Tabulation" def:StandardOID="STD.1"
 def:ArchiveLocationID="LF.TV">
        <Description>
          <TranslatedText xml:lang="en">Trial Visits</TranslatedText>
        </Description>
        <ItemRef ItemOID="IT.TV.STUDYID" Mandatory="Yes" OrderNumber="1" KeySequence="1" Role="Identifier"/>
        <ItemRef ItemOID="IT.TV.DOMAIN" Mandatory="Yes" OrderNumber="2" Role="Identifier"/>
        <ItemRef ItemOID="IT.TV.VISITNUM" Mandatory="Yes" OrderNumber="3" KeySequence="2" Role="Topic"/>
        <ItemRef ItemOID="IT.TV.VISIT" Mandatory="No" OrderNumber="4" Role="Synonym Qualifier"/>
        <ItemRef ItemOID="IT.TV.ARMCD" Mandatory="No" OrderNumber="5" KeySequence="3" Role="Record Qualifier"/>
        <ItemRef ItemOID="IT.TV.TVSTRL" Mandatory="Yes" OrderNumber="6" Role="Rule"/>
        <ItemRef ItemOID="IT.TV.TVENRL" Mandatory="No" OrderNumber="7" Role="Rule"/>
        <def:Class Name="TRIAL DESIGN"/>
        <def:leaf ID="LF.TV" xlink:href="tv.xpt">
          <def:title>tv.xpt</def:title>
        </def:leaf>
      </ItemGroupDef>
      <!-- Dataset Definition (DM) -->
      <ItemGroupDef OID="IG.DM" Name="DM" Domain="DM"
        Repeating="No" IsReferenceData="No" SASDatasetName="DM"
        def:Structure="One record per subject"
        Purpose="Tabulation" def:StandardOID="STD.1"
 def:ArchiveLocationID="LF.DM">
        <Description>
          <TranslatedText xml:lang="en">Demographics</TranslatedText>
        </Description>
        <ItemRef ItemOID="IT.DM.STUDYID" Mandatory="Yes" OrderNumber="1" KeySequence="1" Role="Identifier"/>
        <ItemRef ItemOID="IT.DM.DOMAIN" Mandatory="Yes" OrderNumber="2" Role="Identifier"/>
        <ItemRef ItemOID="IT.DM.USUBJID" Mandatory="Yes" OrderNumber="3" KeySequence="2" Role="Identifier"/>
        <ItemRef ItemOID="IT.DM.SUBJID" Mandatory="Yes" OrderNumber="4" Role="Topic"/>
        <ItemRef ItemOID="IT.DM.RFSTDTC" Mandatory="No" OrderNumber="5" MethodOID="MT.RFSTDTC" Role="Record Qualifier"/>
        <ItemRef ItemOID="IT.DM.RFENDTC" Mandatory="No" OrderNumber="6" MethodOID="MT.RFENDTC" Role="Record Qualifier"/>
        <ItemRef ItemOID="IT.DM.RFXSTDTC" Mandatory="No" OrderNumber="7" MethodOID="MT.RFXSTDTC" Role="Record Qualifier"/>
        <ItemRef ItemOID="IT.DM.RFXENDTC" Mandatory="No" OrderNumber="8" MethodOID="MT.RFXENDTC" Role="Record Qualifier"/>
        <ItemRef ItemOID="IT.DM.RFICDTC" Mandatory="No" OrderNumber="9" Role="Record Qualifier"/>
        <ItemRef ItemOID="IT.DM.RFPENDTC" Mandatory="No" OrderNumber="10" MethodOID="MT.RFPENDTC" Role="Record Qualifier"/>
        <ItemRef ItemOID="IT.DM.DTHDTC" Mandatory="No" OrderNumber="11" Role="Record Qualifier"/>
        <ItemRef ItemOID="IT.DM.DTHFL" Mandatory="No" OrderNumber="12" MethodOID="MT.DTHFL" Role="Record Qualifier"/>
        <ItemRef ItemOID="IT.DM.SITEID" Mandatory="Yes" OrderNumber="13" Role="Record Qualifier"/>
        <ItemRef ItemOID="IT.DM.BRTHDTC" Mandatory="No" OrderNumber="14" Role="Record Qualifier"/>
        <ItemRef ItemOID="IT.DM.AGE" Mandatory="No" OrderNumber="15" Role="Record Qualifier"/>
        <ItemRef ItemOID="IT.DM.AGEU" Mandatory="No" OrderNumber="16" Role="Variable Qualifier"/>
        <ItemRef ItemOID="IT.DM.SEX" Mandatory="Yes" OrderNumber="17" Role="Record Qualifier"/>
        <ItemRef ItemOID="IT.DM.RACE" Mandatory="No" OrderNumber="18" Role="Record Qualifier"/>
        <ItemRef ItemOID="IT.DM.ETHNIC" Mandatory="No" OrderNumber="19" Role="Record Qualifier"/>
        <ItemRef ItemOID="IT.DM.ARMCD" Mandatory="No" OrderNumber="20" Role="Record Qualifier"/>
        <ItemRef ItemOID="IT.DM.ARM" Mandatory="No" OrderNumber="21" Role="Synonym Qualifier"/>
        <ItemRef ItemOID="IT.DM.ACTARMCD" Mandatory="No" OrderNumber="22" Role="Record Qualifier"/>
        <ItemRef ItemOID="IT.DM.ACTARM" Mandatory="No" OrderNumber="23" Role="Synonym Qualifier"/>
        <ItemRef ItemOID="IT.DM.ARMNRS" Mandatory="No" OrderNumber="24" Role="Record Qualifier"/>
        <ItemRef ItemOID="IT.DM.ACTARMUD" Mandatory="No" OrderNumber="25" Role="Record Qualifier"/>
        <ItemRef ItemOID="IT.DM.COUNTRY" Mandatory="Yes" OrderNumber="26" Role="Record Qualifier"/>
        <def:Class Name="SPECIAL PURPOSE"/>
        <def:leaf ID="LF.DM" xlink:href="dm.xpt">
          <def:title>dm.xpt</def:title>
        </def:leaf>
      </ItemGroupDef>
      <!-- Dataset Definition (SE) -->
      <ItemGroupDef OID="IG.SE" Name="SE" Domain="SE"
        Repeating="Yes" IsReferenceData="No" SASDatasetName="SE"
        def:Structure="One record per actual Element per subject"
        Purpose="Tabulation" def:StandardOID="STD.1"
 def:ArchiveLocationID="LF.SE">
        <Description>
          <TranslatedText xml:lang="en">Subject Elements</TranslatedText>
        </Description>
        <ItemRef ItemOID="IT.SE.STUDYID" Mandatory="Yes" OrderNumber="1" KeySequence="1" Role="Identifier"/>
        <ItemRef ItemOID="IT.SE.DOMAIN" Mandatory="Yes" OrderNumber="2" Role="Identifier"/>
        <ItemRef ItemOID="IT.SE.USUBJID" Mandatory="Yes" OrderNumber="3" KeySequence="2" Role="Identifier"/>
        <ItemRef ItemOID="IT.SE.SESEQ" Mandatory="Yes" OrderNumber="4" MethodOID="MT.SEQ" Role="Identifier"/>
        <ItemRef ItemOID="IT.SE.ETCD" Mandatory="Yes" OrderNumber="5" KeySequence="4" Role="Topic"/>
        <ItemRef ItemOID="IT.SE.ELEMENT" Mandatory="No" OrderNumber="6" Role="Synonym Qualifier"/>
        <ItemRef ItemOID="IT.SE.EPOCH" Mandatory="No" OrderNumber="7" MethodOID="MT.EPOCH" Role="Timing"/>
        <ItemRef ItemOID="IT.SE.SESTDTC" Mandatory="Yes" OrderNumber="8" KeySequence="3" MethodOID="MT.SESTDTC" Role="Timing"/>
        <ItemRef ItemOID="IT.SE.SEENDTC" Mandatory="No" OrderNumber="9" MethodOID="MT.SEENDTC" Role="Timing"/>
        <ItemRef ItemOID="IT.SE.SESTDY" Mandatory="No" OrderNumber="10" MethodOID="MT.DAYCALC" Role="Timing"/>
        <ItemRef ItemOID="IT.SE.SEENDY" Mandatory="No" OrderNumber="11" MethodOID="MT.DAYCALC" Role="Timing"/>
        <def:Class Name="SPECIAL PURPOSE"/>
        <def:leaf ID="LF.SE" xlink:href="se.xpt">
          <def:title>se.xpt</def:title>
        </def:leaf>
      </ItemGroupDef>
      <!-- Dataset Definition (SV) -->
      <ItemGroupDef OID="IG.SV" Name="SV" Domain="SV"
        Repeating="Yes" IsReferenceData="No" SASDatasetName="SV"
        def:Structure="One record per actual visit per subject"
        Purpose="Tabulation" def:StandardOID="STD.1"
 def:ArchiveLocationID="LF.SV">
        <Description>
          <TranslatedText xml:lang="en">Subject Visits</TranslatedText>
        </Description>
        <ItemRef ItemOID="IT.SV.STUDYID" Mandatory="Yes" OrderNumber="1" KeySequence="1" Role="Identifier"/>
        <ItemRef ItemOID="IT.SV.DOMAIN" Mandatory="Yes" OrderNumber="2" Role="Identifier"/>
        <ItemRef ItemOID="IT.SV.USUBJID" Mandatory="Yes" OrderNumber="3" KeySequence="2" Role="Identifier"/>
        <ItemRef ItemOID="IT.SV.VISITNUM" Mandatory="Yes" OrderNumber="4" KeySequence="4" Role="Topic"/>
        <ItemRef ItemOID="IT.SV.VISIT" Mandatory="No" OrderNumber="5" Role="Synonym Qualifier"/>
        <ItemRef ItemOID="IT.SV.SVSTDTC" Mandatory="No" OrderNumber="6" KeySequence="3" MethodOID="MT.SVSTDTC" Role="Timing"/>
        <ItemRef ItemOID="IT.SV.SVENDTC" Mandatory="No" OrderNumber="7" MethodOID="MT.SVENDTC" Role="Timing"/>
        <ItemRef ItemOID="IT.SV.SVSTDY" Mandatory="No" OrderNumber="8" MethodOID="MT.DAYCALC" Role="Timing"/>
        <ItemRef ItemOID="IT.SV.SVENDY" Mandatory="No" OrderNumber="9" MethodOID="MT.DAYCALC" Role="Timing"/>
        <ItemRef ItemOID="IT.SV.SVUPDES" Mandatory="No" OrderNumber="10" Role="Synonym Qualifier"/>
        <def:Class Name="SPECIAL PURPOSE"/>
        <def:leaf ID="LF.SV" xlink:href="sv.xpt">
          <def:title>sv.xpt</def:title>
        </def:leaf>
      </ItemGroupDef>
      <!-- Dataset Definition (CM) -->
      <ItemGroupDef OID="IG.CM" Name="CM" Domain="CM"
        Repeating="Yes" IsReferenceData="No" SASDatasetName="CM"
        def:Structure="One record per recorded medication occurrence or constant-dosing interval per subject"
        Purpose="Tabulation" def:StandardOID="STD.1"
 def:ArchiveLocationID="LF.CM">
        <Description>
          <TranslatedText xml:lang="en">Concomitant Medications</TranslatedText>
        </Description>
        <ItemRef ItemOID="IT.CM.STUDYID" Mandatory="Yes" OrderNumber="1" KeySequence="1" Role="Identifier"/>
        <ItemRef ItemOID="IT.CM.DOMAIN" Mandatory="Yes" OrderNumber="2" Role="Identifier"/>
        <ItemRef ItemOID="IT.CM.USUBJID" Mandatory="Yes" OrderNumber="3" KeySequence="2" Role="Identifier"/>
        <ItemRef ItemOID="IT.CM.CMSEQ" Mandatory="Yes" OrderNumber="4" MethodOID="MT.SEQ" Role="Identifier"/>
        <ItemRef ItemOID="IT.CM.CMTRT" Mandatory="Yes" OrderNumber="5" KeySequence="4" Role="Topic"/>
        <ItemRef ItemOID="IT.CM.CMINDC" Mandatory="No" OrderNumber="6" Role="Record Qualifier"/>
        <ItemRef ItemOID="IT.CM.CMDOSE" Mandatory="No" OrderNumber="7" Role="Record Qualifier"/>
        <ItemRef ItemOID="IT.CM.CMDOSU" Mandatory="No" OrderNumber="8" Role="Variable Qualifier"/>
        <ItemRef ItemOID="IT.CM.CMDOSFRQ" Mandatory="No" OrderNumber="9" Role="Variable Qualifier"/>
        <ItemRef ItemOID="IT.CM.CMROUTE" Mandatory="No" OrderNumber="10" Role="Variable Qualifier"/>
        <ItemRef ItemOID="IT.CM.EPOCH" Mandatory="No" OrderNumber="11" MethodOID="MT.EPOCH" Role="Timing"/>
        <ItemRef ItemOID="IT.CM.CMSTDTC" Mandatory="No" OrderNumber="12" KeySequence="3" Role="Timing"/>
        <ItemRef ItemOID="IT.CM.CMENDTC" Mandatory="No" OrderNumber="13" Role="Timing"/>
        <ItemRef ItemOID="IT.CM.CMSTDY" Mandatory="No" OrderNumber="14" MethodOID="MT.DAYCALC" Role="Timing"/>
        <ItemRef ItemOID="IT.CM.CMENDY" Mandatory="No" OrderNumber="15" MethodOID="MT.DAYCALC" Role="Timing"/>
        <ItemRef ItemOID="IT.CM.CMENRTPT" Mandatory="No" OrderNumber="16" Role="Timing"/>
        <ItemRef ItemOID="IT.CM.CMENTPT" Mandatory="No" OrderNumber="17" MethodOID="MT.CMENTPT" Role="Timing"/>
        <def:Class Name="INTERVENTIONS"/>
        <def:leaf ID="LF.CM" xlink:href="cm.xpt">
          <def:title>cm.xpt</def:title>
        </def:leaf>
      </ItemGroupDef>
      <!-- Dataset Definition (EC) -->
      <ItemGroupDef OID="IG.EC" Name="EC" Domain="EC"
        Repeating="Yes" IsReferenceData="No" SASDatasetName="EC"
        def:Structure="One record per constant-dosing interval per mood per subject"
        Purpose="Tabulation" def:StandardOID="STD.1"
 def:ArchiveLocationID="LF.EC">
        <Description>
          <TranslatedText xml:lang="en">Exposure as Collected</TranslatedText>
        </Description>
        <ItemRef ItemOID="IT.EC.STUDYID" Mandatory="Yes" OrderNumber="1" KeySequence="1" Role="Identifier"/>
        <ItemRef ItemOID="IT.EC.DOMAIN" Mandatory="Yes" OrderNumber="2" Role="Identifier"/>
        <ItemRef ItemOID="IT.EC.USUBJID" Mandatory="Yes" OrderNumber="3" KeySequence="2" Role="Identifier"/>
        <ItemRef ItemOID="IT.EC.SPDEVID" Mandatory="Yes" OrderNumber="4" Role="Identifier"/>
        <ItemRef ItemOID="IT.EC.ECSEQ" Mandatory="Yes" OrderNumber="5" MethodOID="MT.SEQ" Role="Identifier"/>
        <ItemRef ItemOID="IT.EC.ECTRT" Mandatory="Yes" OrderNumber="6" KeySequence="3" Role="Topic"/>
        <ItemRef ItemOID="IT.EC.ECPRESP" Mandatory="Yes" OrderNumber="7" Role="Variable Qualifier"/>
        <ItemRef ItemOID="IT.EC.ECOCCUR" Mandatory="Yes" OrderNumber="8" Role="Record Qualifier"/>
        <ItemRef ItemOID="IT.EC.ECDOSE" Mandatory="No" OrderNumber="9" Role="Record Qualifier"/>
        <ItemRef ItemOID="IT.EC.ECDOSU" Mandatory="No" OrderNumber="10" Role="Variable Qualifier"/>
        <ItemRef ItemOID="IT.EC.ECDOSFRM" Mandatory="No" OrderNumber="11" Role="Variable Qualifier"/>
        <ItemRef ItemOID="IT.EC.ECDOSFRQ" Mandatory="No" OrderNumber="12" Role="Variable Qualifier"/>
        <ItemRef ItemOID="IT.EC.ECROUTE" Mandatory="No" OrderNumber="13" Role="Variable Qualifier"/>
        <ItemRef ItemOID="IT.EC.ECLOT" Mandatory="No" OrderNumber="14" Role="Record Qualifier"/>
        <ItemRef ItemOID="IT.EC.ECPSTRG" Mandatory="Yes" OrderNumber="15" Role="Record Qualifier"/>
        <ItemRef ItemOID="IT.EC.ECPSTRGU" Mandatory="Yes" OrderNumber="16" Role="Variable Qualifier"/>
        <ItemRef ItemOID="IT.EC.EPOCH" Mandatory="No" OrderNumber="17" MethodOID="MT.EPOCH" Role="Timing"/>
        <ItemRef ItemOID="IT.EC.ECSTDTC" Mandatory="No" OrderNumber="18" KeySequence="4" Role="Timing"/>
        <ItemRef ItemOID="IT.EC.ECENDTC" Mandatory="No" OrderNumber="19" Role="Timing"/>
        <ItemRef ItemOID="IT.EC.ECSTDY" Mandatory="No" OrderNumber="20" MethodOID="MT.DAYCALC" Role="Timing"/>
        <ItemRef ItemOID="IT.EC.ECENDY" Mandatory="No" OrderNumber="21" MethodOID="MT.DAYCALC" Role="Timing"/>
        <def:Class Name="INTERVENTIONS"/>
        <def:leaf ID="LF.EC" xlink:href="ec.xpt">
          <def:title>ec.xpt</def:title>
        </def:leaf>
      </ItemGroupDef>
      <!-- Dataset Definition (EX) -->
      <ItemGroupDef OID="IG.EX" Name="EX" Domain="EX"
        Repeating="Yes" IsReferenceData="No" SASDatasetName="EX"
        def:Structure="One record per constant dosing interval per subject"
        Purpose="Tabulation" def:StandardOID="STD.1"
 def:ArchiveLocationID="LF.EX">
        <Description>
          <TranslatedText xml:lang="en">Exposure</TranslatedText>
        </Description>
        <ItemRef ItemOID="IT.EX.STUDYID" Mandatory="Yes" OrderNumber="1" KeySequence="1" Role="Identifier"/>
        <ItemRef ItemOID="IT.EX.DOMAIN" Mandatory="Yes" OrderNumber="2" Role="Identifier"/>
        <ItemRef ItemOID="IT.EX.USUBJID" Mandatory="Yes" OrderNumber="3" KeySequence="2" Role="Identifier"/>
        <ItemRef ItemOID="IT.EX.SPDEVID" Mandatory="Yes" OrderNumber="4" Role="Identifier"/>
        <ItemRef ItemOID="IT.EX.EXSEQ" Mandatory="Yes" OrderNumber="5" MethodOID="MT.SEQ" Role="Identifier"/>
        <ItemRef ItemOID="IT.EX.EXTRT" Mandatory="Yes" OrderNumber="6" KeySequence="3" Role="Topic"/>
        <ItemRef ItemOID="IT.EX.EXDOSE" Mandatory="No" OrderNumber="7" MethodOID="MT.EXDOSE" Role="Record Qualifier"/>
        <ItemRef ItemOID="IT.EX.EXDOSU" Mandatory="No" OrderNumber="8" Role="Variable Qualifier"/>
        <ItemRef ItemOID="IT.EX.EXDOSFRM" Mandatory="No" OrderNumber="9" Role="Variable Qualifier"/>
        <ItemRef ItemOID="IT.EX.EXDOSFRQ" Mandatory="No" OrderNumber="10" Role="Variable Qualifier"/>
        <ItemRef ItemOID="IT.EX.EXROUTE" Mandatory="No" OrderNumber="11" Role="Variable Qualifier"/>
        <ItemRef ItemOID="IT.EX.EXLOT" Mandatory="No" OrderNumber="12" Role="Record Qualifier"/>
        <ItemRef ItemOID="IT.EX.EPOCH" Mandatory="No" OrderNumber="13" Role="Timing"/>
        <ItemRef ItemOID="IT.EX.EXSTDTC" Mandatory="No" OrderNumber="14" KeySequence="4" Role="Timing"/>
        <ItemRef ItemOID="IT.EX.EXENDTC" Mandatory="No" OrderNumber="15" Role="Timing"/>
        <ItemRef ItemOID="IT.EX.EXSTDY" Mandatory="No" OrderNumber="16" Role="Timing"/>
        <ItemRef ItemOID="IT.EX.EXENDY" Mandatory="No" OrderNumber="17" Role="Timing"/>
        <def:Class Name="INTERVENTIONS"/>
        <def:leaf ID="LF.EX" xlink:href="ex.xpt">
          <def:title>ex.xpt</def:title>
        </def:leaf>
      </ItemGroupDef>
      <!-- Dataset Definition (AE) -->
      <ItemGroupDef OID="IG.AE" Name="AE" Domain="AE"
        Repeating="Yes" IsReferenceData="No" SASDatasetName="AE"
        def:Structure="One record per adverse event per subject"
        Purpose="Tabulation" def:StandardOID="STD.1"
 def:ArchiveLocationID="LF.AE">
        <Description>
          <TranslatedText xml:lang="en">Adverse Events</TranslatedText>
        </Description>
        <ItemRef ItemOID="IT.AE.STUDYID" Mandatory="Yes" OrderNumber="1" KeySequence="1" Role="Identifier"/>
        <ItemRef ItemOID="IT.AE.DOMAIN" Mandatory="Yes" OrderNumber="2" Role="Identifier"/>
        <ItemRef ItemOID="IT.AE.USUBJID" Mandatory="Yes" OrderNumber="3" KeySequence="2" Role="Identifier"/>
        <ItemRef ItemOID="IT.AE.AESEQ" Mandatory="Yes" OrderNumber="4" MethodOID="MT.SEQ" Role="Identifier"/>
        <ItemRef ItemOID="IT.AE.AELNKID" Mandatory="No" OrderNumber="5" KeySequence="5" Role="Identifier"/>
        <ItemRef ItemOID="IT.AE.AETERM" Mandatory="Yes" OrderNumber="6" Role="Topic"/>
        <ItemRef ItemOID="IT.AE.AELLT" Mandatory="No" OrderNumber="7" Role="Variable Qualifier" def:HasNoData="Yes"/>
        <ItemRef ItemOID="IT.AE.AELLTCD" Mandatory="No" OrderNumber="8" Role="Variable Qualifier" def:HasNoData="Yes"/>
        <ItemRef ItemOID="IT.AE.AEDECOD" Mandatory="Yes" OrderNumber="9" KeySequence="3" Role="Synonym Qualifier" def:HasNoData="Yes"/>
        <ItemRef ItemOID="IT.AE.AEPTCD" Mandatory="No" OrderNumber="10" Role="Variable Qualifier" def:HasNoData="Yes"/>
        <ItemRef ItemOID="IT.AE.AEHLT" Mandatory="No" OrderNumber="11" Role="Variable Qualifier" def:HasNoData="Yes"/>
        <ItemRef ItemOID="IT.AE.AEHLTCD" Mandatory="No" OrderNumber="12" Role="Variable Qualifier" def:HasNoData="Yes"/>
        <ItemRef ItemOID="IT.AE.AEHLGT" Mandatory="No" OrderNumber="13" Role="Variable Qualifier" def:HasNoData="Yes"/>
        <ItemRef ItemOID="IT.AE.AEHLGTCD" Mandatory="No" OrderNumber="14" Role="Variable Qualifier" def:HasNoData="Yes"/>
        <ItemRef ItemOID="IT.AE.AEBODSYS" Mandatory="No" OrderNumber="15" Role="Record Qualifier" def:HasNoData="Yes"/>
        <ItemRef ItemOID="IT.AE.AEBDSYCD" Mandatory="No" OrderNumber="16" Role="Variable Qualifier" def:HasNoData="Yes"/>
        <ItemRef ItemOID="IT.AE.AESOC" Mandatory="No" OrderNumber="17" Role="Variable Qualifier" def:HasNoData="Yes"/>
        <ItemRef ItemOID="IT.AE.AESOCCD" Mandatory="No" OrderNumber="18" Role="Variable Qualifier" def:HasNoData="Yes"/>
        <ItemRef ItemOID="IT.AE.AESEV" Mandatory="No" OrderNumber="19" Role="Record Qualifier"/>
        <ItemRef ItemOID="IT.AE.AESER" Mandatory="No" OrderNumber="20" Role="Record Qualifier"/>
        <ItemRef ItemOID="IT.AE.AEACN" Mandatory="No" OrderNumber="21" Role="Record Qualifier"/>
        <ItemRef ItemOID="IT.AE.AEREL" Mandatory="No" OrderNumber="22" Role="Record Qualifier"/>
        <ItemRef ItemOID="IT.AE.AEOUT" Mandatory="No" OrderNumber="23" Role="Record Qualifier"/>
        <ItemRef ItemOID="IT.AE.AESCAN" Mandatory="No" OrderNumber="24" Role="Record Qualifier"/>
        <ItemRef ItemOID="IT.AE.AESCONG" Mandatory="No" OrderNumber="25" Role="Record Qualifier"/>
        <ItemRef ItemOID="IT.AE.AESDISAB" Mandatory="No" OrderNumber="26" Role="Record Qualifier"/>
        <ItemRef ItemOID="IT.AE.AESDTH" Mandatory="No" OrderNumber="27" Role="Record Qualifier"/>
        <ItemRef ItemOID="IT.AE.AESHOSP" Mandatory="No" OrderNumber="28" Role="Record Qualifier"/>
        <ItemRef ItemOID="IT.AE.AESLIFE" Mandatory="No" OrderNumber="29" Role="Record Qualifier"/>
        <ItemRef ItemOID="IT.AE.AESOD" Mandatory="No" OrderNumber="30" Role="Record Qualifier"/>
        <ItemRef ItemOID="IT.AE.EPOCH" Mandatory="No" OrderNumber="31" MethodOID="MT.EPOCH" Role="Timing"/>
        <ItemRef ItemOID="IT.AE.AESTDTC" Mandatory="No" OrderNumber="32" KeySequence="4" Role="Timing"/>
        <ItemRef ItemOID="IT.AE.AEENDTC" Mandatory="No" OrderNumber="33" Role="Timing"/>
        <ItemRef ItemOID="IT.AE.AESTDY" Mandatory="No" OrderNumber="34" MethodOID="MT.DAYCALC" Role="Timing"/>
        <ItemRef ItemOID="IT.AE.AEENDY" Mandatory="No" OrderNumber="35" MethodOID="MT.DAYCALC" Role="Timing"/>
        <ItemRef ItemOID="IT.AE.AEENRTPT" Mandatory="No" OrderNumber="36" Role="Timing"/>
        <ItemRef ItemOID="IT.AE.AEENTPT" Mandatory="No" OrderNumber="37" MethodOID="MT.AEENTPT" Role="Timing"/>
        <def:Class Name="EVENTS"/>
        <def:leaf ID="LF.AE" xlink:href="ae.xpt">
          <def:title>ae.xpt</def:title>
        </def:leaf>
      </ItemGroupDef>
      <!-- Dataset Definition (DS) -->
      <ItemGroupDef OID="IG.DS" Name="DS" Domain="DS"
        Repeating="Yes" IsReferenceData="No" SASDatasetName="DS"
        def:Structure="One record per disposition status or protocol milestone per subject"
        Purpose="Tabulation" def:StandardOID="STD.1"
 def:ArchiveLocationID="LF.DS">
        <Description>
          <TranslatedText xml:lang="en">Disposition</TranslatedText>
        </Description>
        <ItemRef ItemOID="IT.DS.STUDYID" Mandatory="Yes" OrderNumber="1" KeySequence="1" Role="Identifier"/>
        <ItemRef ItemOID="IT.DS.DOMAIN" Mandatory="Yes" OrderNumber="2" Role="Identifier"/>
        <ItemRef ItemOID="IT.DS.USUBJID" Mandatory="Yes" OrderNumber="3" KeySequence="2" Role="Identifier"/>
        <ItemRef ItemOID="IT.DS.DSSEQ" Mandatory="Yes" OrderNumber="4" MethodOID="MT.SEQ" Role="Identifier"/>
        <ItemRef ItemOID="IT.DS.DSLNKID" Mandatory="No" OrderNumber="5" Role="Identifier"/>
        <ItemRef ItemOID="IT.DS.DSTERM" Mandatory="Yes" OrderNumber="6" Role="Topic"/>
        <ItemRef ItemOID="IT.DS.DSDECOD" Mandatory="Yes" OrderNumber="7" KeySequence="6" Role="Synonym Qualifier"/>
        <ItemRef ItemOID="IT.DS.DSCAT" Mandatory="No" OrderNumber="8" KeySequence="4" Role="Grouping Qualifier"/>
        <ItemRef ItemOID="IT.DS.DSSCAT" Mandatory="No" OrderNumber="9" KeySequence="5" Role="Grouping Qualifier"/>
        <ItemRef ItemOID="IT.DS.EPOCH" Mandatory="No" OrderNumber="10" MethodOID="MT.EPOCH" Role="Timing"/>
        <ItemRef ItemOID="IT.DS.DSSTDTC" Mandatory="No" OrderNumber="11" KeySequence="3" Role="Timing"/>
        <ItemRef ItemOID="IT.DS.DSSTDY" Mandatory="No" OrderNumber="12" MethodOID="MT.DAYCALC" Role="Timing"/>
        <def:Class Name="EVENTS"/>
        <def:leaf ID="LF.DS" xlink:href="ds.xpt">
          <def:title>ds.xpt</def:title>
        </def:leaf>
      </ItemGroupDef>
      <!-- Dataset Definition (MH) -->
      <ItemGroupDef OID="IG.MH" Name="MH" Domain="MH"
        Repeating="Yes" IsReferenceData="No" SASDatasetName="MH"
        def:Structure="One record per medical history event per subject"
        Purpose="Tabulation" def:StandardOID="STD.1"
 def:ArchiveLocationID="LF.MH">
        <Description>
          <TranslatedText xml:lang="en">Medical History</TranslatedText>
        </Description>
        <ItemRef ItemOID="IT.MH.STUDYID" Mandatory="Yes" OrderNumber="1" KeySequence="1" Role="Identifier"/>
        <ItemRef ItemOID="IT.MH.DOMAIN" Mandatory="Yes" OrderNumber="2" Role="Identifier"/>
        <ItemRef ItemOID="IT.MH.USUBJID" Mandatory="Yes" OrderNumber="3" KeySequence="2" Role="Identifier"/>
        <ItemRef ItemOID="IT.MH.MHSEQ" Mandatory="Yes" OrderNumber="4" MethodOID="MT.SEQ" Role="Identifier"/>
        <ItemRef ItemOID="IT.MH.MHTERM" Mandatory="Yes" OrderNumber="5" KeySequence="3" Role="Topic"/>
        <ItemRef ItemOID="IT.MH.MHEVDTYP" Mandatory="No" OrderNumber="6" Role="Variable Qualifier"/>
        <ItemRef ItemOID="IT.MH.MHSTDTC" Mandatory="No" OrderNumber="7" KeySequence="4" Role="Timing"/>
        <ItemRef ItemOID="IT.MH.MHSTDY" Mandatory="No" OrderNumber="8" MethodOID="MT.DAYCALC" Role="Timing"/>
        <def:Class Name="EVENTS"/>
        <def:leaf ID="LF.MH" xlink:href="mh.xpt">
          <def:title>mh.xpt</def:title>
        </def:leaf>
      </ItemGroupDef>
      <!-- Dataset Definition (DD) -->
      <ItemGroupDef OID="IG.DD" Name="DD" Domain="DD"
        Repeating="Yes" IsReferenceData="No" SASDatasetName="DD"
        def:Structure="One record per death detail per subject"
        Purpose="Tabulation" def:StandardOID="STD.1"
 def:ArchiveLocationID="LF.DD">
        <Description>
          <TranslatedText xml:lang="en">Death Details</TranslatedText>
        </Description>
        <ItemRef ItemOID="IT.DD.STUDYID" Mandatory="Yes" OrderNumber="1" KeySequence="1" Role="Identifier"/>
        <ItemRef ItemOID="IT.DD.DOMAIN" Mandatory="Yes" OrderNumber="2" Role="Identifier"/>
        <ItemRef ItemOID="IT.DD.USUBJID" Mandatory="Yes" OrderNumber="3" KeySequence="2" Role="Identifier"/>
        <ItemRef ItemOID="IT.DD.DDSEQ" Mandatory="Yes" OrderNumber="4" MethodOID="MT.SEQ" Role="Identifier"/>
        <ItemRef ItemOID="IT.DD.DDLNKID" Mandatory="No" OrderNumber="5" Role="Identifier"/>
        <ItemRef ItemOID="IT.DD.DDTESTCD" Mandatory="Yes" OrderNumber="6" KeySequence="3" Role="Topic"/>
        <ItemRef ItemOID="IT.DD.DDTEST" Mandatory="Yes" OrderNumber="7" Role="Synonym Qualifier"/>
        <ItemRef ItemOID="IT.DD.DDORRES" Mandatory="No" OrderNumber="8" Role="Result Qualifier"/>
        <ItemRef ItemOID="IT.DD.DDSTRESC" Mandatory="No" OrderNumber="9" Role="Result Qualifier"/>
        <ItemRef ItemOID="IT.DD.EPOCH" Mandatory="No" OrderNumber="10" MethodOID="MT.EPOCH" Role="Timing"/>
        <ItemRef ItemOID="IT.DD.DDDTC" Mandatory="No" OrderNumber="11" Role="Timing"/>
        <ItemRef ItemOID="IT.DD.DDDY" Mandatory="No" OrderNumber="12" MethodOID="MT.DAYCALC" Role="Timing"/>
        <def:Class Name="FINDINGS"/>
        <def:leaf ID="LF.DD" xlink:href="dd.xpt">
          <def:title>dd.xpt</def:title>
        </def:leaf>
      </ItemGroupDef>
      <!-- Dataset Definition (FT) -->
      <ItemGroupDef OID="IG.FT" Name="FT" Domain="FT"
        Repeating="Yes" IsReferenceData="No" SASDatasetName="FT"
        def:Structure="One record per functional test finding per timepoint per visit per subject"
        Purpose="Tabulation" def:StandardOID="STD.1"
 def:ArchiveLocationID="LF.FT">
        <Description>
          <TranslatedText xml:lang="en">Functional Tests</TranslatedText>
        </Description>
        <ItemRef ItemOID="IT.FT.STUDYID" Mandatory="Yes" OrderNumber="1" KeySequence="1" Role="Identifier"/>
        <ItemRef ItemOID="IT.FT.DOMAIN" Mandatory="Yes" OrderNumber="2" Role="Identifier"/>
        <ItemRef ItemOID="IT.FT.USUBJID" Mandatory="Yes" OrderNumber="3" KeySequence="2" Role="Identifier"/>
        <ItemRef ItemOID="IT.FT.FTSEQ" Mandatory="Yes" OrderNumber="4" MethodOID="MT.SEQ" Role="Identifier"/>
        <ItemRef ItemOID="IT.FT.FTTESTCD" Mandatory="Yes" OrderNumber="5" KeySequence="3" Role="Topic"/>
        <ItemRef ItemOID="IT.FT.FTTEST" Mandatory="Yes" OrderNumber="6" Role="Synonym Qualifier"/>
        <ItemRef ItemOID="IT.FT.FTCAT" Mandatory="Yes" OrderNumber="7" Role="Grouping Qualifier"/>
        <ItemRef ItemOID="IT.FT.FTSCAT" Mandatory="Yes" OrderNumber="8" Role="Grouping Qualifier"/>
        <ItemRef ItemOID="IT.FT.FTORRES" Mandatory="No" OrderNumber="9" Role="Result Qualifier"/>
        <ItemRef ItemOID="IT.FT.FTSTRESC" Mandatory="No" OrderNumber="10" Role="Result Qualifier"/>
        <ItemRef ItemOID="IT.FT.FTSTRESN" Mandatory="No" OrderNumber="11" MethodOID="MT.FTSTRESN" Role="Result Qualifier"/>
        <ItemRef ItemOID="IT.FT.FTLOBXFL" Mandatory="No" OrderNumber="12" MethodOID="MT.LOBXFL" Role="Record Qualifier"/>
        <ItemRef ItemOID="IT.FT.FTREPNUM" Mandatory="No" OrderNumber="13" KeySequence="4" Role="Record Qualifier"/>
        <ItemRef ItemOID="IT.FT.VISITNUM" Mandatory="No" OrderNumber="14" KeySequence="5" Role="Timing"/>
        <ItemRef ItemOID="IT.FT.VISIT" Mandatory="No" OrderNumber="15" Role="Timing"/>
        <ItemRef ItemOID="IT.FT.EPOCH" Mandatory="No" OrderNumber="16" MethodOID="MT.EPOCH" Role="Timing"/>
        <ItemRef ItemOID="IT.FT.FTDTC" Mandatory="No" OrderNumber="17" Role="Timing"/>
        <ItemRef ItemOID="IT.FT.FTDY" Mandatory="No" OrderNumber="18" MethodOID="MT.DAYCALC" Role="Timing"/>
        <ItemRef ItemOID="IT.FT.FTTPT" Mandatory="No" OrderNumber="19" Role="Timing"/>
        <ItemRef ItemOID="IT.FT.FTTPTNUM" Mandatory="No" OrderNumber="20" Role="Timing"/>
        <ItemRef ItemOID="IT.FT.FTELTM" Mandatory="No" OrderNumber="21" Role="Timing"/>
        <ItemRef ItemOID="IT.FT.FTTPTREF" Mandatory="No" OrderNumber="22" Role="Timing"/>
        <def:Class Name="FINDINGS"/>
        <def:leaf ID="LF.FT" xlink:href="ft.xpt">
          <def:title>ft.xpt</def:title>
        </def:leaf>
      </ItemGroupDef>
      <!-- Dataset Definition (IE) -->
      <ItemGroupDef OID="IG.IE" Name="IE" Domain="IE"
        Repeating="Yes" IsReferenceData="No" SASDatasetName="IE"
        def:Structure="One record per inclusion/exclusion criterion not met per subject"
        Purpose="Tabulation" def:StandardOID="STD.1"
 def:ArchiveLocationID="LF.IE">
        <Description>
          <TranslatedText xml:lang="en">Inclusion/Exclusion Criteria Not Met</TranslatedText>
        </Description>
        <ItemRef ItemOID="IT.IE.STUDYID" Mandatory="Yes" OrderNumber="1" KeySequence="1" Role="Identifier"/>
        <ItemRef ItemOID="IT.IE.DOMAIN" Mandatory="Yes" OrderNumber="2" Role="Identifier"/>
        <ItemRef ItemOID="IT.IE.USUBJID" Mandatory="Yes" OrderNumber="3" KeySequence="2" Role="Identifier"/>
        <ItemRef ItemOID="IT.IE.IESEQ" Mandatory="Yes" OrderNumber="4" MethodOID="MT.SEQ" Role="Identifier"/>
        <ItemRef ItemOID="IT.IE.IETESTCD" Mandatory="Yes" OrderNumber="5" KeySequence="3" Role="Topic"/>
        <ItemRef ItemOID="IT.IE.IETEST" Mandatory="Yes" OrderNumber="6" Role="Synonym Qualifier"/>
        <ItemRef ItemOID="IT.IE.IECAT" Mandatory="Yes" OrderNumber="7" Role="Grouping Qualifier"/>
        <ItemRef ItemOID="IT.IE.IEORRES" Mandatory="Yes" OrderNumber="8" MethodOID="MT.IEORRES" Role="Result Qualifier"/>
        <ItemRef ItemOID="IT.IE.IESTRESC" Mandatory="Yes" OrderNumber="9" Role="Result Qualifier"/>
        <ItemRef ItemOID="IT.IE.EPOCH" Mandatory="No" OrderNumber="10" MethodOID="MT.EPOCH" Role="Timing"/>
        <ItemRef ItemOID="IT.IE.IEDTC" Mandatory="No" OrderNumber="11" Role="Timing"/>
        <ItemRef ItemOID="IT.IE.IEDY" Mandatory="No" OrderNumber="12" MethodOID="MT.DAYCALC" Role="Timing"/>
        <def:Class Name="FINDINGS"/>
        <def:leaf ID="LF.IE" xlink:href="ie.xpt">
          <def:title>ie.xpt</def:title>
        </def:leaf>
      </ItemGroupDef>
      <!-- Dataset Definition (LB) -->
      <ItemGroupDef OID="IG.LB" Name="LB" Domain="LB"
        Repeating="Yes" IsReferenceData="No" SASDatasetName="LB"
        def:Structure="One record per analyte per visit per subject"
        Purpose="Tabulation" def:StandardOID="STD.1"
 def:ArchiveLocationID="LF.LB">
        <Description>
          <TranslatedText xml:lang="en">Laboratory Test Results</TranslatedText>
        </Description>
        <ItemRef ItemOID="IT.LB.STUDYID" Mandatory="Yes" OrderNumber="1" KeySequence="1" Role="Identifier"/>
        <ItemRef ItemOID="IT.LB.DOMAIN" Mandatory="Yes" OrderNumber="2" Role="Identifier"/>
        <ItemRef ItemOID="IT.LB.USUBJID" Mandatory="Yes" OrderNumber="3" KeySequence="2" Role="Identifier"/>
        <ItemRef ItemOID="IT.LB.LBSEQ" Mandatory="Yes" OrderNumber="4" MethodOID="MT.SEQ" Role="Identifier"/>
        <ItemRef ItemOID="IT.LB.LBTESTCD" Mandatory="Yes" OrderNumber="5" KeySequence="4" Role="Topic"/>
        <ItemRef ItemOID="IT.LB.LBTEST" Mandatory="Yes" OrderNumber="6" Role="Synonym Qualifier"/>
        <ItemRef ItemOID="IT.LB.LBCAT" Mandatory="No" OrderNumber="7" KeySequence="3" Role="Grouping Qualifier"/>
        <ItemRef ItemOID="IT.LB.LBORRES" Mandatory="No" OrderNumber="8" Role="Result Qualifier"/>
        <ItemRef ItemOID="IT.LB.LBORRESU" Mandatory="No" OrderNumber="9" Role="Variable Qualifier"/>
        <ItemRef ItemOID="IT.LB.LBORNRLO" Mandatory="No" OrderNumber="10" Role="Variable Qualifier"/>
        <ItemRef ItemOID="IT.LB.LBORNRHI" Mandatory="No" OrderNumber="11" Role="Variable Qualifier"/>
        <ItemRef ItemOID="IT.LB.LBSTRESC" Mandatory="No" OrderNumber="12" MethodOID="MT.LBSTRESC" Role="Result Qualifier"/>
        <ItemRef ItemOID="IT.LB.LBSTRESN" Mandatory="No" OrderNumber="13" MethodOID="MT.STRESN" Role="Result Qualifier"/>
        <ItemRef ItemOID="IT.LB.LBSTRESU" Mandatory="No" OrderNumber="14" Role="Variable Qualifier"/>
        <ItemRef ItemOID="IT.LB.LBSTNRLO" Mandatory="No" OrderNumber="15" Role="Variable Qualifier"/>
        <ItemRef ItemOID="IT.LB.LBSTNRHI" Mandatory="No" OrderNumber="16" Role="Variable Qualifier"/>
        <ItemRef ItemOID="IT.LB.LBNRIND" Mandatory="No" OrderNumber="17" Role="Variable Qualifier"/>
        <ItemRef ItemOID="IT.LB.LBLOBXFL" Mandatory="No" OrderNumber="18" MethodOID="MT.LOBXFL" Role="Record Qualifier"/>
        <ItemRef ItemOID="IT.LB.VISITNUM" Mandatory="No" OrderNumber="19" KeySequence="6" Role="Timing"/>
        <ItemRef ItemOID="IT.LB.VISIT" Mandatory="No" OrderNumber="20" Role="Timing"/>
        <ItemRef ItemOID="IT.LB.EPOCH" Mandatory="No" OrderNumber="21" MethodOID="MT.EPOCH" Role="Timing"/>
        <ItemRef ItemOID="IT.LB.LBDTC" Mandatory="No" OrderNumber="22" KeySequence="5" Role="Timing"/>
        <ItemRef ItemOID="IT.LB.LBDY" Mandatory="No" OrderNumber="23" MethodOID="MT.DAYCALC" Role="Timing"/>
        <def:Class Name="FINDINGS"/>
        <def:leaf ID="LF.LB" xlink:href="lb.xpt">
          <def:title>lb.xpt</def:title>
        </def:leaf>
      </ItemGroupDef>
      <!-- Dataset Definition (NV) -->
      <ItemGroupDef OID="IG.NV" Name="NV" Domain="NV"
        Repeating="Yes" IsReferenceData="No" SASDatasetName="NV"
        def:Structure="One record per finding per visit per subject"
        Purpose="Tabulation" def:StandardOID="STD.1"
        def:HasNoData="Yes" def:CommentOID="COM.NV1">
        <Description>
          <TranslatedText xml:lang="en">Nervous System Findings</TranslatedText>
        </Description>
        <ItemRef ItemOID="IT.NV.STUDYID" Mandatory="Yes" OrderNumber="1" KeySequence="1" Role="Identifier"/>
        <ItemRef ItemOID="IT.NV.DOMAIN" Mandatory="Yes" OrderNumber="2" Role="Identifier"/>
        <ItemRef ItemOID="IT.NV.USUBJID" Mandatory="Yes" OrderNumber="3" KeySequence="2" Role="Identifier"/>
        <ItemRef ItemOID="IT.NV.NVSEQ" Mandatory="Yes" OrderNumber="4" MethodOID="MT.SEQ" Role="Identifier"/>
        <ItemRef ItemOID="IT.NV.NVTESTCD" Mandatory="Yes" OrderNumber="5" KeySequence="3" Role="Topic"/>
        <ItemRef ItemOID="IT.NV.NVTEST" Mandatory="Yes" OrderNumber="6" Role="Synonym Qualifier"/>
        <ItemRef ItemOID="IT.NV.NVORRES" Mandatory="No" OrderNumber="7" Role="Result Qualifier"/>
        <ItemRef ItemOID="IT.NV.NVSTRESC" Mandatory="No" OrderNumber="8" Role="Result Qualifier"/>
        <ItemRef ItemOID="IT.NV.VISITNUM" Mandatory="No" OrderNumber="9" KeySequence="4" Role="Timing"/>
        <ItemRef ItemOID="IT.NV.EPOCH" Mandatory="No" OrderNumber="10" MethodOID="MT.EPOCH" Role="Timing"/>
        <ItemRef ItemOID="IT.NV.NVDTC" Mandatory="No" OrderNumber="11" Role="Timing"/>
        <ItemRef ItemOID="IT.NV.NVDY" Mandatory="No" OrderNumber="12" MethodOID="MT.DAYCALC" Role="Timing"/>
        <def:Class Name="FINDINGS"/>
      </ItemGroupDef>
      <!-- Dataset Definition (OE) -->
      <ItemGroupDef OID="IG.OE" Name="OE" Domain="OE"
        Repeating="Yes" IsReferenceData="No" SASDatasetName="OE"
        def:Structure="One record per ophthalmic finding per visit per subject"
        Purpose="Tabulation" def:StandardOID="STD.1"
 def:ArchiveLocationID="LF.OE">
        <Description>
          <TranslatedText xml:lang="en">Ophthalmic Examinations</TranslatedText>
        </Description>
        <ItemRef ItemOID="IT.OE.STUDYID" Mandatory="Yes" OrderNumber="1" KeySequence="1" Role="Identifier"/>
        <ItemRef ItemOID="IT.OE.DOMAIN" Mandatory="Yes" OrderNumber="2" Role="Identifier"/>
        <ItemRef ItemOID="IT.OE.USUBJID" Mandatory="Yes" OrderNumber="3" KeySequence="2" Role="Identifier"/>
        <ItemRef ItemOID="IT.OE.FOCID" Mandatory="No" OrderNumber="4" Role="Identifier"/>
        <ItemRef ItemOID="IT.OE.OESEQ" Mandatory="Yes" OrderNumber="5" MethodOID="MT.SEQ" Role="Identifier"/>
        <ItemRef ItemOID="IT.OE.OETESTCD" Mandatory="Yes" OrderNumber="6" KeySequence="3" Role="Topic"/>
        <ItemRef ItemOID="IT.OE.OETEST" Mandatory="Yes" OrderNumber="7" Role="Synonym Qualifier"/>
        <ItemRef ItemOID="IT.OE.OEORRES" Mandatory="No" OrderNumber="8" Role="Result Qualifier"/>
        <ItemRef ItemOID="IT.OE.OESTRESC" Mandatory="No" OrderNumber="9" Role="Result Qualifier"/>
        <ItemRef ItemOID="IT.OE.OELOC" Mandatory="No" OrderNumber="10" KeySequence="4" Role="Record Qualifier"/>
        <ItemRef ItemOID="IT.OE.OELAT" Mandatory="No" OrderNumber="11" KeySequence="5" Role="Variable Qualifier"/>
        <ItemRef ItemOID="IT.OE.OEMETHOD" Mandatory="No" OrderNumber="12" Role="Record Qualifier"/>
        <ItemRef ItemOID="IT.OE.OELOBXFL" Mandatory="No" OrderNumber="13" MethodOID="MT.LOBXFL" Role="Record Qualifier"/>
        <ItemRef ItemOID="IT.OE.VISITNUM" Mandatory="No" OrderNumber="14" KeySequence="6" Role="Timing"/>
        <ItemRef ItemOID="IT.OE.VISIT" Mandatory="No" OrderNumber="15" Role="Timing"/>
        <ItemRef ItemOID="IT.OE.EPOCH" Mandatory="No" OrderNumber="16" MethodOID="MT.EPOCH" Role="Timing"/>
        <ItemRef ItemOID="IT.OE.OEDTC" Mandatory="No" OrderNumber="17" Role="Timing"/>
        <ItemRef ItemOID="IT.OE.OEDY" Mandatory="No" OrderNumber="18" MethodOID="MT.DAYCALC" Role="Timing"/>
        <def:Class Name="FINDINGS"/>
        <def:leaf ID="LF.OE" xlink:href="oe.xpt">
          <def:title>oe.xpt</def:title>
        </def:leaf>
      </ItemGroupDef>
      <!-- Dataset Definition (QSPH) -->
      <ItemGroupDef OID="IG.QSPH" Name="QSPH" Domain="QS"
        Repeating="Yes" IsReferenceData="No" SASDatasetName="QSPH"
        def:Structure="One record per questionnaire finding per visit per subject"
        Purpose="Tabulation" def:StandardOID="STD.1"
 def:CommentOID="COM.QS1" def:ArchiveLocationID="LF.QSPH">
        <Description>
          <TranslatedText xml:lang="en">Questionnaires (PHQ-9)</TranslatedText>
        </Description>
        <ItemRef ItemOID="IT.QSPH.STUDYID" Mandatory="Yes" OrderNumber="1" KeySequence="1" Role="Identifier"/>
        <ItemRef ItemOID="IT.QSPH.DOMAIN" Mandatory="Yes" OrderNumber="2" Role="Identifier"/>
        <ItemRef ItemOID="IT.QSPH.USUBJID" Mandatory="Yes" OrderNumber="3" KeySequence="2" Role="Identifier"/>
        <ItemRef ItemOID="IT.QSPH.QSSEQ" Mandatory="Yes" OrderNumber="4" MethodOID="MT.SEQ" Role="Identifier"/>
        <ItemRef ItemOID="IT.QSPH.QSTESTCD" Mandatory="Yes" OrderNumber="5" KeySequence="3" Role="Topic"/>
        <ItemRef ItemOID="IT.QSPH.QSTEST" Mandatory="Yes" OrderNumber="6" Role="Synonym Qualifier"/>
        <ItemRef ItemOID="IT.QSPH.QSCAT" Mandatory="Yes" OrderNumber="7" Role="Grouping Qualifier"/>
        <ItemRef ItemOID="IT.QSPH.QSORRES" Mandatory="No" OrderNumber="8" Role="Result Qualifier"/>
        <ItemRef ItemOID="IT.QSPH.QSSTRESC" Mandatory="No" OrderNumber="9" Role="Result Qualifier"/>
        <ItemRef ItemOID="IT.QSPH.QSSTRESN" Mandatory="No" OrderNumber="10" MethodOID="MT.QSSTRESN" Role="Result Qualifier"/>
        <ItemRef ItemOID="IT.QSPH.QSLOBXFL" Mandatory="No" OrderNumber="11" MethodOID="MT.LOBXFL" Role="Record Qualifier"/>
        <ItemRef ItemOID="IT.QSPH.VISITNUM" Mandatory="No" OrderNumber="12" KeySequence="4" Role="Timing"/>
        <ItemRef ItemOID="IT.QSPH.VISIT" Mandatory="No" OrderNumber="13" Role="Timing"/>
        <ItemRef ItemOID="IT.QSPH.EPOCH" Mandatory="No" OrderNumber="14" MethodOID="MT.EPOCH" Role="Timing"/>
        <ItemRef ItemOID="IT.QSPH.QSDTC" Mandatory="No" OrderNumber="15" Role="Timing"/>
        <ItemRef ItemOID="IT.QSPH.QSDY" Mandatory="No" OrderNumber="16" MethodOID="MT.DAYCALC" Role="Timing"/>
        <ItemRef ItemOID="IT.QSPH.QSEVLINT" Mandatory="No" OrderNumber="17" Role="Timing"/>
        <Alias Context="DomainDescription" Name="Questionnaires"/>
        <def:Class Name="FINDINGS"/>
        <def:leaf ID="LF.QSPH" xlink:href="qsph.xpt">
          <def:title>qsph.xpt</def:title>
        </def:leaf>
      </ItemGroupDef>
      <!-- Dataset Definition (QSSL) -->
      <ItemGroupDef OID="IG.QSSL" Name="QSSL" Domain="QS"
        Repeating="Yes" IsReferenceData="No" SASDatasetName="QSSL"
        def:Structure="One record per questionnaire finding per visit per subject"
        Purpose="Tabulation" def:StandardOID="STD.1"
 def:CommentOID="COM.QS2" def:ArchiveLocationID="LF.QSSL">
        <Description>
          <TranslatedText xml:lang="en">Questionnaires (SQLS)</TranslatedText>
        </Description>
        <ItemRef ItemOID="IT.QSSL.STUDYID" Mandatory="Yes" OrderNumber="1" KeySequence="1" Role="Identifier"/>
        <ItemRef ItemOID="IT.QSSL.DOMAIN" Mandatory="Yes" OrderNumber="2" Role="Identifier"/>
        <ItemRef ItemOID="IT.QSSL.USUBJID" Mandatory="Yes" OrderNumber="3" KeySequence="2" Role="Identifier"/>
        <ItemRef ItemOID="IT.QSSL.QSSEQ" Mandatory="Yes" OrderNumber="4" MethodOID="MT.SEQ" Role="Identifier"/>
        <ItemRef ItemOID="IT.QSSL.QSTESTCD" Mandatory="Yes" OrderNumber="5" KeySequence="3" Role="Topic"/>
        <ItemRef ItemOID="IT.QSSL.QSTEST" Mandatory="Yes" OrderNumber="6" Role="Synonym Qualifier"/>
        <ItemRef ItemOID="IT.QSSL.QSCAT" Mandatory="Yes" OrderNumber="7" Role="Grouping Qualifier"/>
        <ItemRef ItemOID="IT.QSSL.QSORRES" Mandatory="No" OrderNumber="8" Role="Result Qualifier"/>
        <ItemRef ItemOID="IT.QSSL.QSSTRESC" Mandatory="No" OrderNumber="9" MethodOID="MT.QSSTRESC_SL" Role="Result Qualifier"/>
        <ItemRef ItemOID="IT.QSSL.QSSTRESN" Mandatory="No" OrderNumber="10" MethodOID="MT.QSSTRESN" Role="Result Qualifier"/>
        <ItemRef ItemOID="IT.QSSL.QSLOBXFL" Mandatory="No" OrderNumber="11" MethodOID="MT.LOBXFL" Role="Record Qualifier"/>
        <ItemRef ItemOID="IT.QSSL.VISITNUM" Mandatory="No" OrderNumber="12" KeySequence="4" Role="Timing"/>
        <ItemRef ItemOID="IT.QSSL.VISIT" Mandatory="No" OrderNumber="13" Role="Timing"/>
        <ItemRef ItemOID="IT.QSSL.EPOCH" Mandatory="No" OrderNumber="14" MethodOID="MT.EPOCH" Role="Timing"/>
        <ItemRef ItemOID="IT.QSSL.QSDTC" Mandatory="No" OrderNumber="15" Role="Timing"/>
        <ItemRef ItemOID="IT.QSSL.QSDY" Mandatory="No" OrderNumber="16" MethodOID="MT.DAYCALC" Role="Timing"/>
        <Alias Context="DomainDescription" Name="Questionnaires"/>
        <def:Class Name="FINDINGS"/>
        <def:leaf ID="LF.QSSL" xlink:href="qssl.xpt">
          <def:title>qssl.xpt</def:title>
        </def:leaf>
      </ItemGroupDef>
      <!-- Dataset Definition (RS) -->
      <ItemGroupDef OID="IG.RS" Name="RS" Domain="RS"
        Repeating="Yes" IsReferenceData="No" SASDatasetName="RS"
        def:Structure="One record per response assessment or clinical classification assessment per time point per visit per subject per assessor per medical evaluator"
        Purpose="Tabulation" def:StandardOID="STD.1"
 def:ArchiveLocationID="LF.RS">
        <Description>
          <TranslatedText xml:lang="en">Disease Response and Clin Classification</TranslatedText>
        </Description>
        <ItemRef ItemOID="IT.RS.STUDYID" Mandatory="Yes" OrderNumber="1" KeySequence="1" Role="Identifier"/>
        <ItemRef ItemOID="IT.RS.DOMAIN" Mandatory="Yes" OrderNumber="2" Role="Identifier"/>
        <ItemRef ItemOID="IT.RS.USUBJID" Mandatory="Yes" OrderNumber="3" KeySequence="2" Role="Identifier"/>
        <ItemRef ItemOID="IT.RS.RSSEQ" Mandatory="Yes" OrderNumber="4" MethodOID="MT.SEQ" Role="Identifier"/>
        <ItemRef ItemOID="IT.RS.RSTESTCD" Mandatory="Yes" OrderNumber="5" KeySequence="3" Role="Topic"/>
        <ItemRef ItemOID="IT.RS.RSTEST" Mandatory="Yes" OrderNumber="6" Role="Synonym Qualifier"/>
        <ItemRef ItemOID="IT.RS.RSCAT" Mandatory="Yes" OrderNumber="7" Role="Grouping Qualifier"/>
        <ItemRef ItemOID="IT.RS.RSORRES" Mandatory="No" OrderNumber="8" Role="Result Qualifier"/>
        <ItemRef ItemOID="IT.RS.RSSTRESC" Mandatory="No" OrderNumber="9" MethodOID="MT.RSSTRESC" Role="Result Qualifier"/>
        <ItemRef ItemOID="IT.RS.RSSTRESN" Mandatory="No" OrderNumber="10" MethodOID="MT.STRESN" Role="Result Qualifier"/>
        <ItemRef ItemOID="IT.RS.RSLOBXFL" Mandatory="No" OrderNumber="11" MethodOID="MT.LOBXFL" Role="Record Qualifier"/>
        <ItemRef ItemOID="IT.RS.VISITNUM" Mandatory="No" OrderNumber="12" KeySequence="4" Role="Timing"/>
        <ItemRef ItemOID="IT.RS.VISIT" Mandatory="No" OrderNumber="13" Role="Timing"/>
        <ItemRef ItemOID="IT.RS.EPOCH" Mandatory="No" OrderNumber="14" MethodOID="MT.EPOCH" Role="Timing"/>
        <ItemRef ItemOID="IT.RS.RSDTC" Mandatory="No" OrderNumber="15" Role="Timing"/>
        <ItemRef ItemOID="IT.RS.RSDY" Mandatory="No" OrderNumber="16" MethodOID="MT.DAYCALC" Role="Timing"/>
        <ItemRef ItemOID="IT.RS.RSEVLINT" Mandatory="No" OrderNumber="17" Role="Timing"/>
        <def:Class Name="FINDINGS"/>
        <def:leaf ID="LF.RS" xlink:href="rs.xpt">
          <def:title>rs.xpt</def:title>
        </def:leaf>
      </ItemGroupDef>
      <!-- Dataset Definition (CV) -->
      <!-- HasNoData="Yes" is PRESENT -->
      <ItemGroupDef OID="IG.CV" Name="CV" Domain="CV"
        Repeating="Yes" IsReferenceData="No" SASDatasetName="CV"
        def:Structure="One record per test per observation time or evaluation interval per subject"
        Purpose="Tabulation" def:StandardOID="STD.1"
        def:HasNoData="Yes"
        def:ArchiveLocationID="LF.CV">
        <Description>
          <TranslatedText xml:lang="en">Cardiovascular Findings</TranslatedText>
        </Description>
        <!-- Item references incorrect, but this doesn't matter for testing the rule -->
        <ItemRef ItemOID="IT.VS.STUDYID" Mandatory="Yes" OrderNumber="1" KeySequence="1" Role="Identifier"/>
        <ItemRef ItemOID="IT.VS.DOMAIN" Mandatory="Yes" OrderNumber="2" Role="Identifier"/>
        <ItemRef ItemOID="IT.VS.USUBJID" Mandatory="Yes" OrderNumber="3" KeySequence="2" Role="Identifier"/>
        <ItemRef ItemOID="IT.VS.VSSEQ" Mandatory="Yes" OrderNumber="4" MethodOID="MT.SEQ" Role="Identifier"/>
        <ItemRef ItemOID="IT.VS.VSTESTCD" Mandatory="Yes" OrderNumber="5" KeySequence="3" Role="Topic"/>
        <ItemRef ItemOID="IT.VS.VSTEST" Mandatory="Yes" OrderNumber="6" Role="Synonym Qualifier"/>
        <ItemRef ItemOID="IT.VS.VSPOS" Mandatory="No" OrderNumber="7" KeySequence="4" Role="Record Qualifier"/>
        <ItemRef ItemOID="IT.VS.VSORRES" Mandatory="No" OrderNumber="8" Role="Result Qualifier"/>
        <ItemRef ItemOID="IT.VS.VSORRESU" Mandatory="No" OrderNumber="9" Role="Variable Qualifier"/>
        <ItemRef ItemOID="IT.VS.VSSTRESC" Mandatory="No" OrderNumber="10" MethodOID="MT.VSSTRESC" Role="Result Qualifier"/>
        <ItemRef ItemOID="IT.VS.VSSTRESN" Mandatory="No" OrderNumber="11" MethodOID="MT.STRESN" Role="Result Qualifier"/>
        <ItemRef ItemOID="IT.VS.VSSTRESU" Mandatory="No" OrderNumber="12" Role="Variable Qualifier"/>
        <ItemRef ItemOID="IT.VS.VSSTAT" Mandatory="No" OrderNumber="13" Role="Record Qualifier" def:HasNoData="Yes"/>
        <ItemRef ItemOID="IT.VS.VSLOC" Mandatory="No" OrderNumber="14" Role="Record Qualifier"/>
        <ItemRef ItemOID="IT.VS.VSLOBXFL" Mandatory="No" OrderNumber="15" MethodOID="MT.LOBXFL" Role="Record Qualifier"/>
        <ItemRef ItemOID="IT.VS.VSREPNUM" Mandatory="No" OrderNumber="16" KeySequence="6" Role="Record Qualifier"/>
        <ItemRef ItemOID="IT.VS.VISITNUM" Mandatory="No" OrderNumber="17" KeySequence="5" Role="Timing"/>
        <ItemRef ItemOID="IT.VS.VISIT" Mandatory="No" OrderNumber="18" Role="Timing"/>
        <ItemRef ItemOID="IT.VS.EPOCH" Mandatory="No" OrderNumber="19" MethodOID="MT.EPOCH" Role="Timing"/>
        <ItemRef ItemOID="IT.VS.VSDTC" Mandatory="No" OrderNumber="20" Role="Timing"/>
        <ItemRef ItemOID="IT.VS.VSDY" Mandatory="No" OrderNumber="21" MethodOID="MT.DAYCALC" Role="Timing"/>
        <def:Class Name="FINDINGS"/>
        <def:leaf ID="LF.CV" xlink:href="cv.xpt">
          <def:title>cv.xpt</def:title>
        </def:leaf>
      </ItemGroupDef>
      <!-- Dataset Definition (FA) -->
      <ItemGroupDef OID="IG.FA" Name="FA" Domain="FA"
        Repeating="Yes" IsReferenceData="No" SASDatasetName="FA"
        def:Structure="One record per finding per object per subject"
        Purpose="Tabulation" def:StandardOID="STD.1"
 def:CommentOID="COM.FA2" def:ArchiveLocationID="LF.FA">
        <Description>
          <TranslatedText xml:lang="en">Findings About Events or Interventions</TranslatedText>
        </Description>
        <ItemRef ItemOID="IT.FA.STUDYID" Mandatory="Yes" OrderNumber="1" KeySequence="1" Role="Identifier"/>
        <ItemRef ItemOID="IT.FA.DOMAIN" Mandatory="Yes" OrderNumber="2" Role="Identifier"/>
        <ItemRef ItemOID="IT.FA.USUBJID" Mandatory="Yes" OrderNumber="3" KeySequence="2" Role="Identifier"/>
        <ItemRef ItemOID="IT.FA.FASEQ" Mandatory="Yes" OrderNumber="4" MethodOID="MT.SEQ" Role="Identifier"/>
        <ItemRef ItemOID="IT.FA.FALNKGRP" Mandatory="No" OrderNumber="5" KeySequence="4" Role="Identifier"/>
        <ItemRef ItemOID="IT.FA.FATESTCD" Mandatory="Yes" OrderNumber="6" KeySequence="3" Role="Topic"/>
        <ItemRef ItemOID="IT.FA.FATEST" Mandatory="Yes" OrderNumber="7" Role="Synonym Qualifier"/>
        <ItemRef ItemOID="IT.FA.FAOBJ" Mandatory="Yes" OrderNumber="8" KeySequence="5" Role="Record Qualifier"/>
        <ItemRef ItemOID="IT.FA.FACAT" Mandatory="No" OrderNumber="9" Role="Grouping Qualifier"/>
        <ItemRef ItemOID="IT.FA.FAORRES" Mandatory="No" OrderNumber="10" Role="Result Qualifier"/>
        <ItemRef ItemOID="IT.FA.FASTRESC" Mandatory="No" OrderNumber="11" Role="Result Qualifier"/>
        <ItemRef ItemOID="IT.FA.FALOC" Mandatory="No" OrderNumber="12" Role="Record Qualifier"/>
        <ItemRef ItemOID="IT.FA.VISITNUM" Mandatory="No" OrderNumber="13" Role="Timing"/>
        <ItemRef ItemOID="IT.FA.EPOCH" Mandatory="No" OrderNumber="14" Role="Timing"/>
        <ItemRef ItemOID="IT.FA.FADTC" Mandatory="No" OrderNumber="15" KeySequence="6" Role="Timing"/>
        <ItemRef ItemOID="IT.FA.FADY" Mandatory="No" OrderNumber="16" MethodOID="MT.DAYCALC" Role="Timing"/>
        <def:Class Name="FINDINGS ABOUT"/>
        <def:leaf ID="LF.FA" xlink:href="fa.xpt">
          <def:title>fa.xpt</def:title>
        </def:leaf>
      </ItemGroupDef>
      <!-- Dataset Definition (RELREC) -->
      <ItemGroupDef OID="IG.RELREC" Name="RELREC" Domain="RELREC"
        Repeating="Yes" IsReferenceData="No" SASDatasetName="RELREC"
        def:Structure="One record per related record, group of records or dataset"
        Purpose="Tabulation" def:StandardOID="STD.1"
 def:ArchiveLocationID="LF.RELREC">
        <Description>
          <TranslatedText xml:lang="en">Related Records</TranslatedText>
        </Description>
        <ItemRef ItemOID="IT.RELREC.STUDYID" Mandatory="Yes" OrderNumber="1" KeySequence="1" Role="Identifier"/>
        <ItemRef ItemOID="IT.RELREC.RDOMAIN" Mandatory="Yes" OrderNumber="2" KeySequence="2" Role="Identifier"/>
        <ItemRef ItemOID="IT.RELREC.USUBJID" Mandatory="No" OrderNumber="3" KeySequence="3" Role="Identifier"/>
        <ItemRef ItemOID="IT.RELREC.IDVAR" Mandatory="Yes" OrderNumber="4" KeySequence="4" Role="Identifier"/>
        <ItemRef ItemOID="IT.RELREC.IDVARVAL" Mandatory="No" OrderNumber="5" KeySequence="5" Role="Identifier"/>
        <ItemRef ItemOID="IT.RELREC.RELTYPE" Mandatory="No" OrderNumber="6" Role="Record Qualifier"/>
        <ItemRef ItemOID="IT.RELREC.RELID" Mandatory="Yes" OrderNumber="7" KeySequence="6" Role="Record Qualifier"/>
        <def:Class Name="RELATIONSHIP"/>
        <def:leaf ID="LF.RELREC" xlink:href="relrec.xpt">
          <def:title>relrec.xpt</def:title>
        </def:leaf>
      </ItemGroupDef>
      <!-- Dataset Definition (SUPPDM) -->
      <ItemGroupDef OID="IG.SUPPDM" Name="SUPPDM" Domain="DM"
        Repeating="Yes" IsReferenceData="No" SASDatasetName="SUPPDM"
        def:Structure="One record per IDVAR, IDVARVAL, and QNAM value per subject"
        Purpose="Tabulation" def:StandardOID="STD.1"
 def:ArchiveLocationID="LF.SUPPDM">
        <Description>
          <TranslatedText xml:lang="en">Supplemental Qualifiers for DM</TranslatedText>
        </Description>
        <ItemRef ItemOID="IT.SUPPDM.STUDYID" Mandatory="Yes" OrderNumber="1" KeySequence="1" Role="Identifier"/>
        <ItemRef ItemOID="IT.SUPPDM.RDOMAIN" Mandatory="Yes" OrderNumber="2" KeySequence="2" Role="Identifier"/>
        <ItemRef ItemOID="IT.SUPPDM.USUBJID" Mandatory="Yes" OrderNumber="3" KeySequence="3" Role="Identifier"/>
        <ItemRef ItemOID="IT.SUPPDM.IDVAR" Mandatory="No" OrderNumber="4" KeySequence="4" Role="Identifier"/>
        <ItemRef ItemOID="IT.SUPPDM.IDVARVAL" Mandatory="No" OrderNumber="5" KeySequence="5" Role="Identifier"/>
        <ItemRef ItemOID="IT.SUPPDM.QNAM" Mandatory="Yes" OrderNumber="6" KeySequence="6" Role="Topic"/>
        <ItemRef ItemOID="IT.SUPPDM.QLABEL" Mandatory="Yes" OrderNumber="7" Role="Synonym Qualifier"/>
        <ItemRef ItemOID="IT.SUPPDM.QVAL" Mandatory="Yes" OrderNumber="8" Role="Result Qualifier"/>
        <ItemRef ItemOID="IT.SUPPDM.QORIG" Mandatory="Yes" OrderNumber="9" Role="Record Qualifier"/>
        <ItemRef ItemOID="IT.SUPPDM.QEVAL" Mandatory="No" OrderNumber="10" Role="Record Qualifier"/>
        <Alias Context="DomainDescription" Name="Demographics"/>
        <def:Class Name="RELATIONSHIP"/>
        <def:leaf ID="LF.SUPPDM" xlink:href="suppdm.xpt">
          <def:title>suppdm.xpt</def:title>
        </def:leaf>
      </ItemGroupDef>
      <!-- Dataset Definition (SUPPEC) -->
      <ItemGroupDef OID="IG.SUPPEC" Name="SUPPEC" Domain="EC"
        Repeating="Yes" IsReferenceData="No" SASDatasetName="SUPPEC"
        def:Structure="One record per IDVAR, IDVARVAL, and QNAM value per subject"
        Purpose="Tabulation" def:StandardOID="STD.1"
 def:ArchiveLocationID="LF.SUPPEC">
        <Description>
          <TranslatedText xml:lang="en">Supplemental Qualifiers for EC</TranslatedText>
        </Description>
        <ItemRef ItemOID="IT.SUPPEC.STUDYID" Mandatory="Yes" OrderNumber="1" KeySequence="1" Role="Identifier"/>
        <ItemRef ItemOID="IT.SUPPEC.RDOMAIN" Mandatory="Yes" OrderNumber="2" KeySequence="2" Role="Identifier"/>
        <ItemRef ItemOID="IT.SUPPEC.USUBJID" Mandatory="Yes" OrderNumber="3" KeySequence="3" Role="Identifier"/>
        <ItemRef ItemOID="IT.SUPPEC.IDVAR" Mandatory="No" OrderNumber="4" KeySequence="4" Role="Identifier"/>
        <ItemRef ItemOID="IT.SUPPEC.IDVARVAL" Mandatory="No" OrderNumber="5" KeySequence="5" Role="Identifier"/>
        <ItemRef ItemOID="IT.SUPPEC.QNAM" Mandatory="Yes" OrderNumber="6" KeySequence="6" Role="Topic"/>
        <ItemRef ItemOID="IT.SUPPEC.QLABEL" Mandatory="Yes" OrderNumber="7" Role="Synonym Qualifier"/>
        <ItemRef ItemOID="IT.SUPPEC.QVAL" Mandatory="Yes" OrderNumber="8" Role="Result Qualifier"/>
        <ItemRef ItemOID="IT.SUPPEC.QORIG" Mandatory="Yes" OrderNumber="9" Role="Record Qualifier"/>
        <ItemRef ItemOID="IT.SUPPEC.QEVAL" Mandatory="No" OrderNumber="10" Role="Record Qualifier"/>
        <Alias Context="DomainDescription" Name="Exposure as Collected"/>
        <def:Class Name="RELATIONSHIP"/>
        <def:leaf ID="LF.SUPPEC" xlink:href="suppec.xpt">
          <def:title>suppec.xpt</def:title>
        </def:leaf>
      </ItemGroupDef>
      <!-- Dataset Definition (SUPPNV) -->
      <ItemGroupDef OID="IG.SUPPNV" Name="SUPPNV" Domain="NV"
        Repeating="Yes" IsReferenceData="No" SASDatasetName="SUPPNV"
        def:Structure="One record per IDVAR, IDVARVAL, and QNAM value per subject"
        Purpose="Tabulation" def:StandardOID="STD.1"
        def:HasNoData="Yes" def:CommentOID="COM.NV2">
        <Description>
          <TranslatedText xml:lang="en">Supplemental Qualifiers for NV</TranslatedText>
        </Description>
        <ItemRef ItemOID="IT.SUPPNV.STUDYID" Mandatory="Yes" OrderNumber="1" KeySequence="1" Role="Identifier"/>
        <ItemRef ItemOID="IT.SUPPNV.RDOMAIN" Mandatory="Yes" OrderNumber="2" KeySequence="2" Role="Identifier"/>
        <ItemRef ItemOID="IT.SUPPNV.USUBJID" Mandatory="Yes" OrderNumber="3" KeySequence="3" Role="Identifier"/>
        <ItemRef ItemOID="IT.SUPPNV.IDVAR" Mandatory="No" OrderNumber="4" KeySequence="4" Role="Identifier"/>
        <ItemRef ItemOID="IT.SUPPNV.IDVARVAL" Mandatory="No" OrderNumber="5" KeySequence="5" Role="Identifier"/>
        <ItemRef ItemOID="IT.SUPPNV.QNAM" Mandatory="Yes" OrderNumber="6" KeySequence="6" Role="Topic"/>
        <ItemRef ItemOID="IT.SUPPNV.QLABEL" Mandatory="Yes" OrderNumber="7" Role="Synonym Qualifier"/>
        <ItemRef ItemOID="IT.SUPPNV.QVAL" Mandatory="Yes" OrderNumber="8" Role="Result Qualifier"/>
        <ItemRef ItemOID="IT.SUPPNV.QORIG" Mandatory="Yes" OrderNumber="9" Role="Record Qualifier"/>
        <ItemRef ItemOID="IT.SUPPNV.QEVAL" Mandatory="No" OrderNumber="10" Role="Record Qualifier"/>
        <Alias Context="DomainDescription" Name="Nervous System Findings"/>
        <def:Class Name="RELATIONSHIP"/>
      </ItemGroupDef>
      <!-- Dataset Definition (SUPPOE) -->
      <ItemGroupDef OID="IG.SUPPOE" Name="SUPPOE" Domain="OE"
        Repeating="Yes" IsReferenceData="No" SASDatasetName="SUPPOE"
        def:Structure="One record per IDVAR, IDVARVAL, and QNAM value per subject"
        Purpose="Tabulation" def:StandardOID="STD.1"
        def:HasNoData="Yes" def:CommentOID="COM.OE1">
        <Description>
          <TranslatedText xml:lang="en">Supplemental Qualifiers for OE</TranslatedText>
        </Description>
        <ItemRef ItemOID="IT.SUPPOE.STUDYID" Mandatory="Yes" OrderNumber="1" KeySequence="1" Role="Identifier"/>
        <ItemRef ItemOID="IT.SUPPOE.RDOMAIN" Mandatory="Yes" OrderNumber="2" KeySequence="2" Role="Identifier"/>
        <ItemRef ItemOID="IT.SUPPOE.USUBJID" Mandatory="Yes" OrderNumber="3" KeySequence="3" Role="Identifier"/>
        <ItemRef ItemOID="IT.SUPPOE.IDVAR" Mandatory="No" OrderNumber="4" KeySequence="4" Role="Identifier"/>
        <ItemRef ItemOID="IT.SUPPOE.IDVARVAL" Mandatory="No" OrderNumber="5" KeySequence="5" Role="Identifier"/>
        <ItemRef ItemOID="IT.SUPPOE.QNAM" Mandatory="Yes" OrderNumber="6" KeySequence="6" Role="Topic"/>
        <ItemRef ItemOID="IT.SUPPOE.QLABEL" Mandatory="Yes" OrderNumber="7" Role="Synonym Qualifier"/>
        <ItemRef ItemOID="IT.SUPPOE.QVAL" Mandatory="Yes" OrderNumber="8" Role="Result Qualifier"/>
        <ItemRef ItemOID="IT.SUPPOE.QORIG" Mandatory="Yes" OrderNumber="9" Role="Record Qualifier"/>
        <ItemRef ItemOID="IT.SUPPOE.QEVAL" Mandatory="No" OrderNumber="10" Role="Record Qualifier"/>
        <Alias Context="DomainDescription" Name="Ophthalmic Examinations"/>
        <def:Class Name="RELATIONSHIP"/>
      </ItemGroupDef>
      <!-- Dataset Definition (DI) -->
      <ItemGroupDef OID="IG.DI" Name="DI" Domain="DI"
        Repeating="No" IsReferenceData="Yes" SASDatasetName="DI"
        def:Structure="One record per device identifier per device"
        Purpose="Tabulation" def:StandardOID="STD.1"
 def:ArchiveLocationID="LF.DI">
        <Description>
          <TranslatedText xml:lang="en">Device Identifiers</TranslatedText>
        </Description>
        <ItemRef ItemOID="IT.DI.STUDYID" Mandatory="Yes" OrderNumber="1" KeySequence="1" Role="Identifier"/>
        <ItemRef ItemOID="IT.DI.DOMAIN" Mandatory="Yes" OrderNumber="2" Role="Identifier"/>
        <ItemRef ItemOID="IT.DI.SPDEVID" Mandatory="Yes" OrderNumber="3" KeySequence="2" Role="Identifier"/>
        <ItemRef ItemOID="IT.DI.DISEQ" Mandatory="Yes" OrderNumber="4" MethodOID="MT.DISEQ" Role="Identifier"/>
        <ItemRef ItemOID="IT.DI.DIPARMCD" Mandatory="Yes" OrderNumber="5" KeySequence="3" Role="Topic"/>
        <ItemRef ItemOID="IT.DI.DIPARM" Mandatory="Yes" OrderNumber="6" Role="Synonym Qualifier"/>
        <ItemRef ItemOID="IT.DI.DIVAL" Mandatory="Yes" OrderNumber="7" Role="Result Qualifier"/>
        <def:Class Name="STUDY REFERENCE"/>
        <def:leaf ID="LF.DI" xlink:href="di.xpt">
          <def:title>di.xpt</def:title>
        </def:leaf>
      </ItemGroupDef>


      <!-- **************************************************************************** -->
      <!-- ItemDef Definitions Section (Variables and Value List, remaining properties) -->
      <!-- **************************************************************************** -->

      <ItemDef OID="IT.AE.STUDYID" Name="STUDYID" DataType="text" Length="12" SASFieldName="STUDYID">
        <Description>
          <TranslatedText xml:lang="en">Study Identifier</TranslatedText>
        </Description>
        <def:Origin Type="Protocol" Source="Sponsor"/>
      </ItemDef>
      <ItemDef OID="IT.AE.DOMAIN" Name="DOMAIN" DataType="text" Length="2" SASFieldName="DOMAIN">
        <Description>
          <TranslatedText xml:lang="en">Domain Abbreviation</TranslatedText>
        </Description>
        <CodeListRef CodeListOID="CL.DOMAIN_AE"/>
        <def:Origin Type="Assigned" Source="Sponsor"/>
      </ItemDef>
      <ItemDef OID="IT.AE.USUBJID" Name="USUBJID" DataType="text" Length="8" SASFieldName="USUBJID">
        <Description>
          <TranslatedText xml:lang="en">Unique Subject Identifier</TranslatedText>
        </Description>
        <def:Origin Type="Assigned" Source="Sponsor"/>
      </ItemDef>
      <ItemDef OID="IT.AE.AESEQ" Name="AESEQ" DataType="integer" Length="3" SASFieldName="AESEQ">
        <Description>
          <TranslatedText xml:lang="en">Sequence Number</TranslatedText>
        </Description>
        <def:Origin Type="Derived" Source="Sponsor"/>
      </ItemDef>
      <ItemDef OID="IT.AE.AELNKID" Name="AELNKID" DataType="text" Length="50" SASFieldName="AELNKID">
        <Description>
          <TranslatedText xml:lang="en">Link ID</TranslatedText>
        </Description>
        <def:Origin Type="Collected" Source="Investigator">
          <def:DocumentRef leafID="LF.acrf">
            <def:PDFPageRef PageRefs="22 23" Type="PhysicalRef"/>
          </def:DocumentRef>
        </def:Origin>
      </ItemDef>
      <ItemDef OID="IT.AE.AETERM" Name="AETERM" DataType="text" Length="200" SASFieldName="AETERM">
        <Description>
          <TranslatedText xml:lang="en">Reported Term for the Adverse Event</TranslatedText>
        </Description>
        <def:ValueListRef ValueListOID="VL.AETERM"/>
      </ItemDef>
      <ItemDef OID="IT.AE.AELLT" Name="AELLT" DataType="text" Length="1" SASFieldName="AELLT"
        def:CommentOID="COM.AE3">
        <Description>
          <TranslatedText xml:lang="en">Lowest Level Term</TranslatedText>
        </Description>
        <CodeListRef CodeListOID="CL.MEDDRA"/>
        <def:Origin Type="Assigned" Source="Sponsor"/>
      </ItemDef>
      <ItemDef OID="IT.AE.AELLTCD" Name="AELLTCD" DataType="text" Length="1" SASFieldName="AELLTCD"
        def:CommentOID="COM.AE3">
        <Description>
          <TranslatedText xml:lang="en">Lowest Level Term Code</TranslatedText>
        </Description>
        <CodeListRef CodeListOID="CL.MEDDRA"/>
        <def:Origin Type="Assigned" Source="Sponsor"/>
      </ItemDef>
      <ItemDef OID="IT.AE.AEDECOD" Name="AEDECOD" DataType="text" Length="1" SASFieldName="AEDECOD"
        def:CommentOID="COM.AEDECOD">
        <Description>
          <TranslatedText xml:lang="en">Dictionary-Derived Term</TranslatedText>
        </Description>
        <CodeListRef CodeListOID="CL.MEDDRA"/>
        <def:Origin Type="Assigned" Source="Sponsor"/>
      </ItemDef>
      <ItemDef OID="IT.AE.AEPTCD" Name="AEPTCD" DataType="text" Length="1" SASFieldName="AEPTCD"
        def:CommentOID="COM.AE3">
        <Description>
          <TranslatedText xml:lang="en">Preferred Term Code</TranslatedText>
        </Description>
        <CodeListRef CodeListOID="CL.MEDDRA"/>
        <def:Origin Type="Assigned" Source="Sponsor"/>
      </ItemDef>
      <ItemDef OID="IT.AE.AEHLT" Name="AEHLT" DataType="text" Length="1" SASFieldName="AEHLT"
        def:CommentOID="COM.AE3">
        <Description>
          <TranslatedText xml:lang="en">High Level Term</TranslatedText>
        </Description>
        <CodeListRef CodeListOID="CL.MEDDRA"/>
        <def:Origin Type="Assigned" Source="Sponsor"/>
      </ItemDef>
      <ItemDef OID="IT.AE.AEHLTCD" Name="AEHLTCD" DataType="text" Length="1" SASFieldName="AEHLTCD"
        def:CommentOID="COM.AE3">
        <Description>
          <TranslatedText xml:lang="en">High Level Term Code</TranslatedText>
        </Description>
        <CodeListRef CodeListOID="CL.MEDDRA"/>
        <def:Origin Type="Assigned" Source="Sponsor"/>
      </ItemDef>
      <ItemDef OID="IT.AE.AEHLGT" Name="AEHLGT" DataType="text" Length="1" SASFieldName="AEHLGT"
        def:CommentOID="COM.AE3">
        <Description>
          <TranslatedText xml:lang="en">High Level Group Term</TranslatedText>
        </Description>
        <CodeListRef CodeListOID="CL.MEDDRA"/>
        <def:Origin Type="Assigned" Source="Sponsor"/>
      </ItemDef>
      <ItemDef OID="IT.AE.AEHLGTCD" Name="AEHLGTCD" DataType="text" Length="1" SASFieldName="AEHLGTCD"
        def:CommentOID="COM.AE3">
        <Description>
          <TranslatedText xml:lang="en">High Level Group Term Code</TranslatedText>
        </Description>
        <CodeListRef CodeListOID="CL.MEDDRA"/>
        <def:Origin Type="Assigned" Source="Sponsor"/>
      </ItemDef>
      <ItemDef OID="IT.AE.AEBODSYS" Name="AEBODSYS" DataType="text" Length="1" SASFieldName="AEBODSYS"
        def:CommentOID="COM.AE3">
        <Description>
          <TranslatedText xml:lang="en">Body System or Organ Class</TranslatedText>
        </Description>
        <CodeListRef CodeListOID="CL.MEDDRA"/>
        <def:Origin Type="Assigned" Source="Sponsor"/>
      </ItemDef>
      <ItemDef OID="IT.AE.AEBDSYCD" Name="AEBDSYCD" DataType="text" Length="1" SASFieldName="AEBDSYCD"
        def:CommentOID="COM.AE3">
        <Description>
          <TranslatedText xml:lang="en">Body System or Organ Class Code</TranslatedText>
        </Description>
        <CodeListRef CodeListOID="CL.MEDDRA"/>
        <def:Origin Type="Assigned" Source="Sponsor"/>
      </ItemDef>
      <ItemDef OID="IT.AE.AESOC" Name="AESOC" DataType="text" Length="1" SASFieldName="AESOC"
        def:CommentOID="COM.AE3">
        <Description>
          <TranslatedText xml:lang="en">Primary System Organ Class</TranslatedText>
        </Description>
        <CodeListRef CodeListOID="CL.MEDDRA"/>
        <def:Origin Type="Assigned" Source="Sponsor"/>
      </ItemDef>
      <ItemDef OID="IT.AE.AESOCCD" Name="AESOCCD" DataType="text" Length="1" SASFieldName="AESOCCD"
        def:CommentOID="COM.AE3">
        <Description>
          <TranslatedText xml:lang="en">Primary System Organ Class Code</TranslatedText>
        </Description>
        <CodeListRef CodeListOID="CL.MEDDRA"/>
        <def:Origin Type="Assigned" Source="Sponsor"/>
      </ItemDef>
      <ItemDef OID="IT.AE.AESEV" Name="AESEV" DataType="text" Length="8" SASFieldName="AESEV">
        <Description>
          <TranslatedText xml:lang="en">Severity/Intensity</TranslatedText>
        </Description>
        <CodeListRef CodeListOID="CL.AESEV"/>
        <def:Origin Type="Collected" Source="Investigator">
          <def:DocumentRef leafID="LF.acrf">
            <def:PDFPageRef PageRefs="22 23" Type="PhysicalRef"/>
          </def:DocumentRef>
        </def:Origin>
      </ItemDef>
      <ItemDef OID="IT.AE.AESER" Name="AESER" DataType="text" Length="1" SASFieldName="AESER"
        def:CommentOID="COM.AESER">
        <Description>
          <TranslatedText xml:lang="en">Serious Event</TranslatedText>
        </Description>
        <CodeListRef CodeListOID="CL.NY_NY"/>
        <def:Origin Type="Collected" Source="Investigator">
          <def:DocumentRef leafID="LF.acrf">
            <def:PDFPageRef PageRefs="22 23" Type="PhysicalRef"/>
          </def:DocumentRef>
        </def:Origin>
      </ItemDef>
      <ItemDef OID="IT.AE.AEACN" Name="AEACN" DataType="text" Length="16" SASFieldName="AEACN">
        <Description>
          <TranslatedText xml:lang="en">Action Taken with Study Treatment</TranslatedText>
        </Description>
        <CodeListRef CodeListOID="CL.ACN"/>
        <def:Origin Type="Collected" Source="Investigator">
          <def:DocumentRef leafID="LF.acrf">
            <def:PDFPageRef PageRefs="22 23" Type="PhysicalRef"/>
          </def:DocumentRef>
        </def:Origin>
      </ItemDef>
      <ItemDef OID="IT.AE.AEREL" Name="AEREL" DataType="text" Length="16" SASFieldName="AEREL">
        <Description>
          <TranslatedText xml:lang="en">Causality</TranslatedText>
        </Description>
        <CodeListRef CodeListOID="CL.AEREL"/>
        <def:Origin Type="Collected" Source="Investigator">
          <def:DocumentRef leafID="LF.acrf">
            <def:PDFPageRef PageRefs="22 23" Type="PhysicalRef"/>
          </def:DocumentRef>
        </def:Origin>
      </ItemDef>
      <ItemDef OID="IT.AE.AEOUT" Name="AEOUT" DataType="text" Length="32" SASFieldName="AEOUT">
        <Description>
          <TranslatedText xml:lang="en">Outcome of Adverse Event</TranslatedText>
        </Description>
        <CodeListRef CodeListOID="CL.OUT"/>
        <def:Origin Type="Collected" Source="Investigator">
          <def:DocumentRef leafID="LF.acrf">
            <def:PDFPageRef PageRefs="22 23" Type="PhysicalRef"/>
          </def:DocumentRef>
        </def:Origin>
      </ItemDef>
      <ItemDef OID="IT.AE.AESCAN" Name="AESCAN" DataType="text" Length="1" SASFieldName="AESCAN">
        <Description>
          <TranslatedText xml:lang="en">Involves Cancer</TranslatedText>
        </Description>
        <CodeListRef CodeListOID="CL.NY_NY"/>
        <def:Origin Type="Collected" Source="Investigator">
          <def:DocumentRef leafID="LF.acrf">
            <def:PDFPageRef PageRefs="22 23" Type="PhysicalRef"/>
          </def:DocumentRef>
        </def:Origin>
      </ItemDef>
      <ItemDef OID="IT.AE.AESCONG" Name="AESCONG" DataType="text" Length="1" SASFieldName="AESCONG">
        <Description>
          <TranslatedText xml:lang="en">Congenital Anomaly or Birth Defect</TranslatedText>
        </Description>
        <CodeListRef CodeListOID="CL.NY_NY"/>
        <def:Origin Type="Collected" Source="Investigator">
          <def:DocumentRef leafID="LF.acrf">
            <def:PDFPageRef PageRefs="22 23" Type="PhysicalRef"/>
          </def:DocumentRef>
        </def:Origin>
      </ItemDef>
      <ItemDef OID="IT.AE.AESDISAB" Name="AESDISAB" DataType="text" Length="1" SASFieldName="AESDISAB">
        <Description>
          <TranslatedText xml:lang="en">Persist or Signif Disability/Incapacity</TranslatedText>
        </Description>
        <CodeListRef CodeListOID="CL.NY_NY"/>
        <def:Origin Type="Collected" Source="Investigator">
          <def:DocumentRef leafID="LF.acrf">
            <def:PDFPageRef PageRefs="22 23" Type="PhysicalRef"/>
          </def:DocumentRef>
        </def:Origin>
      </ItemDef>
      <ItemDef OID="IT.AE.AESDTH" Name="AESDTH" DataType="text" Length="1" SASFieldName="AESDTH">
        <Description>
          <TranslatedText xml:lang="en">Results in Death</TranslatedText>
        </Description>
        <CodeListRef CodeListOID="CL.NY_NY"/>
        <def:Origin Type="Collected" Source="Investigator">
          <def:DocumentRef leafID="LF.acrf">
            <def:PDFPageRef PageRefs="22 23" Type="PhysicalRef"/>
          </def:DocumentRef>
        </def:Origin>
      </ItemDef>
      <ItemDef OID="IT.AE.AESHOSP" Name="AESHOSP" DataType="text" Length="1" SASFieldName="AESHOSP">
        <Description>
          <TranslatedText xml:lang="en">Requires or Prolongs Hospitalization</TranslatedText>
        </Description>
        <CodeListRef CodeListOID="CL.NY_NY"/>
        <def:Origin Type="Collected" Source="Investigator">
          <def:DocumentRef leafID="LF.acrf">
            <def:PDFPageRef PageRefs="22 23" Type="PhysicalRef"/>
          </def:DocumentRef>
        </def:Origin>
      </ItemDef>
      <ItemDef OID="IT.AE.AESLIFE" Name="AESLIFE" DataType="text" Length="1" SASFieldName="AESLIFE">
        <Description>
          <TranslatedText xml:lang="en">Is Life Threatening</TranslatedText>
        </Description>
        <CodeListRef CodeListOID="CL.NY_NY"/>
        <def:Origin Type="Collected" Source="Investigator">
          <def:DocumentRef leafID="LF.acrf">
            <def:PDFPageRef PageRefs="22 23" Type="PhysicalRef"/>
          </def:DocumentRef>
        </def:Origin>
      </ItemDef>
      <ItemDef OID="IT.AE.AESOD" Name="AESOD" DataType="text" Length="1" SASFieldName="AESOD">
        <Description>
          <TranslatedText xml:lang="en">Occurred with Overdose</TranslatedText>
        </Description>
        <CodeListRef CodeListOID="CL.NY_NY"/>
        <def:Origin Type="Collected" Source="Investigator">
          <def:DocumentRef leafID="LF.acrf">
            <def:PDFPageRef PageRefs="22 23" Type="PhysicalRef"/>
          </def:DocumentRef>
        </def:Origin>
      </ItemDef>
      <ItemDef OID="IT.AE.EPOCH" Name="EPOCH" DataType="text" Length="9" SASFieldName="EPOCH">
        <Description>
          <TranslatedText xml:lang="en">Epoch</TranslatedText>
        </Description>
        <CodeListRef CodeListOID="CL.EPOCH"/>
        <def:Origin Type="Derived" Source="Sponsor"/>
      </ItemDef>
      <ItemDef OID="IT.AE.AESTDTC" Name="AESTDTC" DataType="date" SASFieldName="AESTDTC">
        <Description>
          <TranslatedText xml:lang="en">Start Date/Time of Adverse Event</TranslatedText>
        </Description>
        <def:Origin Type="Collected" Source="Investigator">
          <def:DocumentRef leafID="LF.acrf">
            <def:PDFPageRef PageRefs="22 23" Type="PhysicalRef"/>
          </def:DocumentRef>
        </def:Origin>
      </ItemDef>
      <ItemDef OID="IT.AE.AEENDTC" Name="AEENDTC" DataType="date" SASFieldName="AEENDTC">
        <Description>
          <TranslatedText xml:lang="en">End Date/Time of Adverse Event</TranslatedText>
        </Description>
        <def:Origin Type="Collected" Source="Investigator">
          <def:DocumentRef leafID="LF.acrf">
            <def:PDFPageRef PageRefs="22 23" Type="PhysicalRef"/>
          </def:DocumentRef>
        </def:Origin>
      </ItemDef>
      <ItemDef OID="IT.AE.AESTDY" Name="AESTDY" DataType="integer" Length="8" SASFieldName="AESTDY">
        <Description>
          <TranslatedText xml:lang="en">Study Day of Start of Adverse Event</TranslatedText>
        </Description>
        <def:Origin Type="Derived" Source="Sponsor"/>
      </ItemDef>
      <ItemDef OID="IT.AE.AEENDY" Name="AEENDY" DataType="integer" Length="8" SASFieldName="AEENDY">
        <Description>
          <TranslatedText xml:lang="en">Study Day of End of Adverse Event</TranslatedText>
        </Description>
        <def:Origin Type="Derived" Source="Sponsor"/>
      </ItemDef>
      <ItemDef OID="IT.AE.AEENRTPT" Name="AEENRTPT" DataType="text" Length="7" SASFieldName="AEENRTPT">
        <Description>
          <TranslatedText xml:lang="en">End Relative to Reference Time Point</TranslatedText>
        </Description>
        <CodeListRef CodeListOID="CL.ENRTPT_CM_AE"/>
        <def:Origin Type="Collected" Source="Investigator">
          <def:DocumentRef leafID="LF.acrf">
            <def:PDFPageRef PageRefs="22 23" Type="PhysicalRef"/>
          </def:DocumentRef>
        </def:Origin>
      </ItemDef>
      <ItemDef OID="IT.AE.AEENTPT" Name="AEENTPT" DataType="date" SASFieldName="AEENTPT">
        <Description>
          <TranslatedText xml:lang="en">End Reference Time Point</TranslatedText>
        </Description>
        <def:Origin Type="Derived" Source="Sponsor"/>
      </ItemDef>
      <ItemDef OID="IT.CM.STUDYID" Name="STUDYID" DataType="text" Length="12" SASFieldName="STUDYID">
        <Description>
          <TranslatedText xml:lang="en">Study Identifier</TranslatedText>
        </Description>
        <def:Origin Type="Protocol" Source="Sponsor"/>
      </ItemDef>
      <ItemDef OID="IT.CM.DOMAIN" Name="DOMAIN" DataType="text" Length="2" SASFieldName="DOMAIN">
        <Description>
          <TranslatedText xml:lang="en">Domain Abbreviation</TranslatedText>
        </Description>
        <CodeListRef CodeListOID="CL.DOMAIN_CM"/>
        <def:Origin Type="Assigned" Source="Sponsor"/>
      </ItemDef>
      <ItemDef OID="IT.CM.USUBJID" Name="USUBJID" DataType="text" Length="8" SASFieldName="USUBJID">
        <Description>
          <TranslatedText xml:lang="en">Unique Subject Identifier</TranslatedText>
        </Description>
        <def:Origin Type="Assigned" Source="Sponsor"/>
      </ItemDef>
      <ItemDef OID="IT.CM.CMSEQ" Name="CMSEQ" DataType="integer" Length="3" SASFieldName="CMSEQ">
        <Description>
          <TranslatedText xml:lang="en">Sequence Number</TranslatedText>
        </Description>
        <def:Origin Type="Derived" Source="Sponsor"/>
      </ItemDef>
      <ItemDef OID="IT.CM.CMTRT" Name="CMTRT" DataType="text" Length="200" SASFieldName="CMTRT">
        <Description>
          <TranslatedText xml:lang="en">Reported Name of Drug, Med, or Therapy</TranslatedText>
        </Description>
        <def:Origin Type="Collected" Source="Investigator">
          <def:DocumentRef leafID="LF.acrf">
            <def:PDFPageRef PageRefs="25" Type="PhysicalRef"/>
          </def:DocumentRef>
        </def:Origin>
      </ItemDef>
      <ItemDef OID="IT.CM.CMINDC" Name="CMINDC" DataType="text" Length="200" SASFieldName="CMINDC"
        def:CommentOID="COM.CMINDC">
        <Description>
          <TranslatedText xml:lang="en">Indication</TranslatedText>
        </Description>
        <def:Origin Type="Collected" Source="Investigator">
          <def:DocumentRef leafID="LF.acrf">
            <def:PDFPageRef PageRefs="25" Type="PhysicalRef"/>
          </def:DocumentRef>
        </def:Origin>
      </ItemDef>
      <ItemDef OID="IT.CM.CMDOSE" Name="CMDOSE" DataType="float" Length="5" SignificantDigits="3" SASFieldName="CMDOSE">
        <Description>
          <TranslatedText xml:lang="en">Dose per Administration</TranslatedText>
        </Description>
        <def:Origin Type="Collected" Source="Investigator">
          <def:DocumentRef leafID="LF.acrf">
            <def:PDFPageRef PageRefs="25" Type="PhysicalRef"/>
          </def:DocumentRef>
        </def:Origin>
      </ItemDef>
      <ItemDef OID="IT.CM.CMDOSU" Name="CMDOSU" DataType="text" Length="6" SASFieldName="CMDOSU">
        <Description>
          <TranslatedText xml:lang="en">Dose Units</TranslatedText>
        </Description>
        <CodeListRef CodeListOID="CL.UNIT_CM"/>
        <def:Origin Type="Collected" Source="Investigator">
          <def:DocumentRef leafID="LF.acrf">
            <def:PDFPageRef PageRefs="25" Type="PhysicalRef"/>
          </def:DocumentRef>
        </def:Origin>
      </ItemDef>
      <ItemDef OID="IT.CM.CMDOSFRQ" Name="CMDOSFRQ" DataType="text" Length="3" SASFieldName="CMDOSFRQ">
        <Description>
          <TranslatedText xml:lang="en">Dosing Frequency per Interval</TranslatedText>
        </Description>
        <CodeListRef CodeListOID="CL.FREQ_CM"/>
        <def:Origin Type="Collected" Source="Investigator">
          <def:DocumentRef leafID="LF.acrf">
            <def:PDFPageRef PageRefs="25" Type="PhysicalRef"/>
          </def:DocumentRef>
        </def:Origin>
      </ItemDef>
      <ItemDef OID="IT.CM.CMROUTE" Name="CMROUTE" DataType="text" Length="24" SASFieldName="CMROUTE">
        <Description>
          <TranslatedText xml:lang="en">Route of Administration</TranslatedText>
        </Description>
        <CodeListRef CodeListOID="CL.ROUTE_CM"/>
        <def:Origin Type="Collected" Source="Investigator">
          <def:DocumentRef leafID="LF.acrf">
            <def:PDFPageRef PageRefs="25" Type="PhysicalRef"/>
          </def:DocumentRef>
        </def:Origin>
      </ItemDef>
      <ItemDef OID="IT.CM.EPOCH" Name="EPOCH" DataType="text" Length="9" SASFieldName="EPOCH">
        <Description>
          <TranslatedText xml:lang="en">Epoch</TranslatedText>
        </Description>
        <CodeListRef CodeListOID="CL.EPOCH"/>
        <def:Origin Type="Derived" Source="Sponsor"/>
      </ItemDef>
      <ItemDef OID="IT.CM.CMSTDTC" Name="CMSTDTC" DataType="partialDate" SASFieldName="CMSTDTC">
        <Description>
          <TranslatedText xml:lang="en">Start Date/Time of Medication</TranslatedText>
        </Description>
        <def:Origin Type="Collected" Source="Investigator">
          <def:DocumentRef leafID="LF.acrf">
            <def:PDFPageRef PageRefs="25" Type="PhysicalRef"/>
          </def:DocumentRef>
        </def:Origin>
      </ItemDef>
      <ItemDef OID="IT.CM.CMENDTC" Name="CMENDTC" DataType="partialDate" SASFieldName="CMENDTC">
        <Description>
          <TranslatedText xml:lang="en">End Date/Time of Medication</TranslatedText>
        </Description>
        <def:Origin Type="Collected" Source="Investigator">
          <def:DocumentRef leafID="LF.acrf">
            <def:PDFPageRef PageRefs="25" Type="PhysicalRef"/>
          </def:DocumentRef>
        </def:Origin>
      </ItemDef>
      <ItemDef OID="IT.CM.CMSTDY" Name="CMSTDY" DataType="integer" Length="8" SASFieldName="CMSTDY">
        <Description>
          <TranslatedText xml:lang="en">Study Day of Start of Medication</TranslatedText>
        </Description>
        <def:Origin Type="Derived" Source="Sponsor"/>
      </ItemDef>
      <ItemDef OID="IT.CM.CMENDY" Name="CMENDY" DataType="integer" Length="8" SASFieldName="CMENDY">
        <Description>
          <TranslatedText xml:lang="en">Study Day of End of Medication</TranslatedText>
        </Description>
        <def:Origin Type="Derived" Source="Sponsor"/>
      </ItemDef>
      <ItemDef OID="IT.CM.CMENRTPT" Name="CMENRTPT" DataType="text" Length="7" SASFieldName="CMENRTPT">
        <Description>
          <TranslatedText xml:lang="en">End Relative to Reference Time Point</TranslatedText>
        </Description>
        <CodeListRef CodeListOID="CL.ENRTPT_CM_AE"/>
        <def:Origin Type="Collected" Source="Investigator">
          <def:DocumentRef leafID="LF.acrf">
            <def:PDFPageRef PageRefs="25" Type="PhysicalRef"/>
          </def:DocumentRef>
        </def:Origin>
      </ItemDef>
      <ItemDef OID="IT.CM.CMENTPT" Name="CMENTPT" DataType="date" SASFieldName="CMENTPT">
        <Description>
          <TranslatedText xml:lang="en">End Reference Time Point</TranslatedText>
        </Description>
        <def:Origin Type="Derived" Source="Sponsor"/>
      </ItemDef>
      <ItemDef OID="IT.DI.STUDYID" Name="STUDYID" DataType="text" Length="12" SASFieldName="STUDYID">
        <Description>
          <TranslatedText xml:lang="en">Study Identifier</TranslatedText>
        </Description>
        <def:Origin Type="Assigned" Source="Sponsor"/>
      </ItemDef>
      <ItemDef OID="IT.DI.DOMAIN" Name="DOMAIN" DataType="text" Length="2" SASFieldName="DOMAIN">
        <Description>
          <TranslatedText xml:lang="en">Domain Abbreviation</TranslatedText>
        </Description>
        <CodeListRef CodeListOID="CL.DOMAIN_DI"/>
        <def:Origin Type="Assigned" Source="Sponsor"/>
      </ItemDef>
      <ItemDef OID="IT.DI.SPDEVID" Name="SPDEVID" DataType="text" Length="200" SASFieldName="SPDEVID">
        <Description>
          <TranslatedText xml:lang="en">Sponsor Device Identifier</TranslatedText>
        </Description>
        <def:Origin Type="Assigned" Source="Sponsor"/>
      </ItemDef>
      <ItemDef OID="IT.DI.DISEQ" Name="DISEQ" DataType="integer" Length="3" SASFieldName="DISEQ">
        <Description>
          <TranslatedText xml:lang="en">Sequence Number</TranslatedText>
        </Description>
        <def:Origin Type="Derived" Source="Sponsor"/>
      </ItemDef>
      <ItemDef OID="IT.DI.DIPARMCD" Name="DIPARMCD" DataType="text" Length="7" SASFieldName="DIPARMCD">
        <Description>
          <TranslatedText xml:lang="en">Device Identifier Element Short Name</TranslatedText>
        </Description>
        <CodeListRef CodeListOID="CL.DIPARMCD"/>
        <def:Origin Type="Assigned" Source="Sponsor"/>
      </ItemDef>
      <ItemDef OID="IT.DI.DIPARM" Name="DIPARM" DataType="text" Length="13" SASFieldName="DIPARM">
        <Description>
          <TranslatedText xml:lang="en">Device Identifier Element Name</TranslatedText>
        </Description>
        <CodeListRef CodeListOID="CL.DIPARM"/>
        <def:Origin Type="Assigned" Source="Sponsor"/>
      </ItemDef>
      <ItemDef OID="IT.DI.DIVAL" Name="DIVAL" DataType="text" Length="200" SASFieldName="DIVAL">
        <Description>
          <TranslatedText xml:lang="en">Device Identifier Element Value</TranslatedText>
        </Description>
        <def:Origin Type="Assigned" Source="Sponsor"/>
      </ItemDef>
      <ItemDef OID="IT.DM.STUDYID" Name="STUDYID" DataType="text" Length="12" SASFieldName="STUDYID">
        <Description>
          <TranslatedText xml:lang="en">Study Identifier</TranslatedText>
        </Description>
        <def:Origin Type="Protocol" Source="Sponsor"/>
      </ItemDef>
      <ItemDef OID="IT.DM.DOMAIN" Name="DOMAIN" DataType="text" Length="2" SASFieldName="DOMAIN">
        <Description>
          <TranslatedText xml:lang="en">Domain Abbreviation</TranslatedText>
        </Description>
        <CodeListRef CodeListOID="CL.DOMAIN_DM"/>
        <def:Origin Type="Assigned" Source="Sponsor"/>
      </ItemDef>
      <ItemDef OID="IT.DM.USUBJID" Name="USUBJID" DataType="text" Length="8" SASFieldName="USUBJID">
        <Description>
          <TranslatedText xml:lang="en">Unique Subject Identifier</TranslatedText>
        </Description>
        <def:Origin Type="Assigned" Source="Sponsor"/>
      </ItemDef>
      <ItemDef OID="IT.DM.SUBJID" Name="SUBJID" DataType="text" Length="4" SASFieldName="SUBJID">
        <Description>
          <TranslatedText xml:lang="en">Subject Identifier for the Study</TranslatedText>
        </Description>
        <def:Origin Type="Assigned" Source="Sponsor"/>
      </ItemDef>
      <ItemDef OID="IT.DM.RFSTDTC" Name="RFSTDTC" DataType="date" SASFieldName="RFSTDTC">
        <Description>
          <TranslatedText xml:lang="en">Subject Reference Start Date/Time</TranslatedText>
        </Description>
        <def:Origin Type="Derived" Source="Sponsor"/>
      </ItemDef>
      <ItemDef OID="IT.DM.RFENDTC" Name="RFENDTC" DataType="date" SASFieldName="RFENDTC">
        <Description>
          <TranslatedText xml:lang="en">Subject Reference End Date/Time</TranslatedText>
        </Description>
        <def:Origin Type="Derived" Source="Sponsor"/>
      </ItemDef>
      <ItemDef OID="IT.DM.RFXSTDTC" Name="RFXSTDTC" DataType="date" SASFieldName="RFXSTDTC">
        <Description>
          <TranslatedText xml:lang="en">Date/Time of First Study Treatment</TranslatedText>
        </Description>
        <def:Origin Type="Derived" Source="Sponsor"/>
      </ItemDef>
      <ItemDef OID="IT.DM.RFXENDTC" Name="RFXENDTC" DataType="date" SASFieldName="RFXENDTC">
        <Description>
          <TranslatedText xml:lang="en">Date/Time of Last Study Treatment</TranslatedText>
        </Description>
        <def:Origin Type="Derived" Source="Sponsor"/>
      </ItemDef>
      <ItemDef OID="IT.DM.RFICDTC" Name="RFICDTC" DataType="date" SASFieldName="RFICDTC">
        <Description>
          <TranslatedText xml:lang="en">Date/Time of Informed Consent</TranslatedText>
        </Description>
        <def:Origin Type="Collected" Source="Investigator">
          <def:DocumentRef leafID="LF.acrf">
            <def:PDFPageRef PageRefs="5" Type="PhysicalRef"/>
          </def:DocumentRef>
        </def:Origin>
      </ItemDef>
      <ItemDef OID="IT.DM.RFPENDTC" Name="RFPENDTC" DataType="date" SASFieldName="RFPENDTC">
        <Description>
          <TranslatedText xml:lang="en">Date/Time of End of Participation</TranslatedText>
        </Description>
        <def:Origin Type="Derived" Source="Sponsor"/>
      </ItemDef>
      <ItemDef OID="IT.DM.DTHDTC" Name="DTHDTC" DataType="date" SASFieldName="DTHDTC">
        <Description>
          <TranslatedText xml:lang="en">Date/Time of Death</TranslatedText>
        </Description>
        <def:Origin Type="Collected" Source="Investigator">
          <def:DocumentRef leafID="LF.acrf">
            <def:PDFPageRef PageRefs="26" Type="PhysicalRef"/>
          </def:DocumentRef>
        </def:Origin>
      </ItemDef>
      <ItemDef OID="IT.DM.DTHFL" Name="DTHFL" DataType="text" Length="1" SASFieldName="DTHFL">
        <Description>
          <TranslatedText xml:lang="en">Subject Death Flag</TranslatedText>
        </Description>
        <CodeListRef CodeListOID="CL.NY_YONLY"/>
        <def:Origin Type="Derived" Source="Sponsor"/>
      </ItemDef>
      <ItemDef OID="IT.DM.SITEID" Name="SITEID" DataType="text" Length="3" SASFieldName="SITEID">
        <Description>
          <TranslatedText xml:lang="en">Study Site Identifier</TranslatedText>
        </Description>
        <CodeListRef CodeListOID="CL.SITEID"/>
        <def:Origin Type="Assigned" Source="Sponsor"/>
      </ItemDef>
      <ItemDef OID="IT.DM.BRTHDTC" Name="BRTHDTC" DataType="date" SASFieldName="BRTHDTC">
        <Description>
          <TranslatedText xml:lang="en">Date/Time of Birth</TranslatedText>
        </Description>
        <def:Origin Type="Collected" Source="Investigator">
          <def:DocumentRef leafID="LF.acrf">
            <def:PDFPageRef PageRefs="5" Type="PhysicalRef"/>
          </def:DocumentRef>
        </def:Origin>
      </ItemDef>
      <ItemDef OID="IT.DM.AGE" Name="AGE" DataType="integer" Length="8" SASFieldName="AGE">
        <Description>
          <TranslatedText xml:lang="en">Age</TranslatedText>
        </Description>
        <def:Origin Type="Collected" Source="Investigator">
          <def:DocumentRef leafID="LF.acrf">
            <def:PDFPageRef PageRefs="5" Type="PhysicalRef"/>
          </def:DocumentRef>
        </def:Origin>
      </ItemDef>
      <ItemDef OID="IT.DM.AGEU" Name="AGEU" DataType="text" Length="5" SASFieldName="AGEU">
        <Description>
          <TranslatedText xml:lang="en">Age Units</TranslatedText>
        </Description>
        <CodeListRef CodeListOID="CL.AGEU_YEARS"/>
        <def:Origin Type="Assigned" Source="Sponsor"/>
      </ItemDef>
      <ItemDef OID="IT.DM.SEX" Name="SEX" DataType="text" Length="1" SASFieldName="SEX">
        <Description>
          <TranslatedText xml:lang="en">Sex</TranslatedText>
        </Description>
        <CodeListRef CodeListOID="CL.SEX"/>
        <def:Origin Type="Collected" Source="Investigator">
          <def:DocumentRef leafID="LF.acrf">
            <def:PDFPageRef PageRefs="5" Type="PhysicalRef"/>
          </def:DocumentRef>
        </def:Origin>
      </ItemDef>
      <ItemDef OID="IT.DM.RACE" Name="RACE" DataType="text" Length="41" SASFieldName="RACE">
        <Description>
          <TranslatedText xml:lang="en">Race</TranslatedText>
        </Description>
        <def:ValueListRef ValueListOID="VL.RACE"/>
      </ItemDef>
      <ItemDef OID="IT.DM.ETHNIC" Name="ETHNIC" DataType="text" Length="22" SASFieldName="ETHNIC">
        <Description>
          <TranslatedText xml:lang="en">Ethnicity</TranslatedText>
        </Description>
        <CodeListRef CodeListOID="CL.ETHNIC"/>
        <def:Origin Type="Collected" Source="Investigator">
          <def:DocumentRef leafID="LF.acrf">
            <def:PDFPageRef PageRefs="5" Type="PhysicalRef"/>
          </def:DocumentRef>
        </def:Origin>
      </ItemDef>
      <ItemDef OID="IT.DM.ARMCD" Name="ARMCD" DataType="text" Length="8" SASFieldName="ARMCD">
        <Description>
          <TranslatedText xml:lang="en">Planned Arm Code</TranslatedText>
        </Description>
        <CodeListRef CodeListOID="CL.ARMCD"/>
        <def:Origin Type="Assigned" Source="Sponsor"/>
      </ItemDef>
      <ItemDef OID="IT.DM.ARM" Name="ARM" DataType="text" Length="28" SASFieldName="ARM">
        <Description>
          <TranslatedText xml:lang="en">Description of Planned Arm</TranslatedText>
        </Description>
        <CodeListRef CodeListOID="CL.ARM"/>
        <def:Origin Type="Assigned" Source="Sponsor"/>
      </ItemDef>
      <ItemDef OID="IT.DM.ACTARMCD" Name="ACTARMCD" DataType="text" Length="8" SASFieldName="ACTARMCD">
        <Description>
          <TranslatedText xml:lang="en">Actual Arm Code</TranslatedText>
        </Description>
        <CodeListRef CodeListOID="CL.ARMCD"/>
        <def:Origin Type="Assigned" Source="Sponsor"/>
      </ItemDef>
      <ItemDef OID="IT.DM.ACTARM" Name="ACTARM" DataType="text" Length="28" SASFieldName="ACTARM">
        <Description>
          <TranslatedText xml:lang="en">Description of Actual Arm</TranslatedText>
        </Description>
        <CodeListRef CodeListOID="CL.ARM"/>
        <def:Origin Type="Assigned" Source="Sponsor"/>
      </ItemDef>
      <ItemDef OID="IT.DM.ARMNRS" Name="ARMNRS" DataType="text" Length="14" SASFieldName="ARMNRS">
        <Description>
          <TranslatedText xml:lang="en">Reason Arm and/or Actual Arm is Null</TranslatedText>
        </Description>
        <CodeListRef CodeListOID="CL.ARMNRS"/>
        <def:Origin Type="Assigned" Source="Sponsor"/>
      </ItemDef>
      <ItemDef OID="IT.DM.ACTARMUD" Name="ACTARMUD" DataType="text" Length="200" SASFieldName="ACTARMUD">
        <Description>
          <TranslatedText xml:lang="en">Description of Unplanned Actual Arm</TranslatedText>
        </Description>
        <def:Origin Type="Assigned" Source="Sponsor"/>
      </ItemDef>
      <ItemDef OID="IT.DM.COUNTRY" Name="COUNTRY" DataType="text" Length="3" SASFieldName="COUNTRY">
        <Description>
          <TranslatedText xml:lang="en">Country</TranslatedText>
        </Description>
        <CodeListRef CodeListOID="CL.ISO3166"/>
        <def:Origin Type="Assigned" Source="Sponsor"/>
      </ItemDef>
      <ItemDef OID="IT.SUPPDM.STUDYID" Name="STUDYID" DataType="text" Length="12" SASFieldName="STUDYID">
        <Description>
          <TranslatedText xml:lang="en">Study Identifier</TranslatedText>
        </Description>
        <def:Origin Type="Protocol" Source="Sponsor"/>
      </ItemDef>
      <ItemDef OID="IT.SUPPDM.RDOMAIN" Name="RDOMAIN" DataType="text" Length="6" SASFieldName="RDOMAIN">
        <Description>
          <TranslatedText xml:lang="en">Related Domain Abbreviation</TranslatedText>
        </Description>
        <CodeListRef CodeListOID="CL.DOMAIN_DM"/>
        <def:Origin Type="Assigned" Source="Sponsor"/>
      </ItemDef>
      <ItemDef OID="IT.SUPPDM.USUBJID" Name="USUBJID" DataType="text" Length="8" SASFieldName="USUBJID">
        <Description>
          <TranslatedText xml:lang="en">Unique Subject Identifier</TranslatedText>
        </Description>
        <def:Origin Type="Assigned" Source="Sponsor"/>
      </ItemDef>
      <ItemDef OID="IT.SUPPDM.IDVAR" Name="IDVAR" DataType="text" Length="200" SASFieldName="IDVAR">
        <Description>
          <TranslatedText xml:lang="en">Identifying Variable</TranslatedText>
        </Description>
        <def:Origin Type="Assigned" Source="Sponsor"/>
      </ItemDef>
      <ItemDef OID="IT.SUPPDM.IDVARVAL" Name="IDVARVAL" DataType="text" Length="200" SASFieldName="IDVARVAL">
        <Description>
          <TranslatedText xml:lang="en">Identifying Variable Value</TranslatedText>
        </Description>
        <def:Origin Type="Assigned" Source="Sponsor"/>
      </ItemDef>
      <ItemDef OID="IT.SUPPDM.QNAM" Name="QNAM" DataType="text" Length="5" SASFieldName="QNAM">
        <Description>
          <TranslatedText xml:lang="en">Qualifier Variable Name</TranslatedText>
        </Description>
        <def:Origin Type="Assigned" Source="Sponsor"/>
      </ItemDef>
      <ItemDef OID="IT.SUPPDM.QLABEL" Name="QLABEL" DataType="text" Length="40" SASFieldName="QLABEL">
        <Description>
          <TranslatedText xml:lang="en">Qualifier Variable Label</TranslatedText>
        </Description>
        <def:Origin Type="Assigned" Source="Sponsor"/>
      </ItemDef>
      <ItemDef OID="IT.SUPPDM.QVAL" Name="QVAL" DataType="text" Length="41" SASFieldName="QVAL">
        <Description>
          <TranslatedText xml:lang="en">Data Value</TranslatedText>
        </Description>
        <def:ValueListRef ValueListOID="VL.SUPPDM"/>
      </ItemDef>
      <ItemDef OID="IT.SUPPDM.QORIG" Name="QORIG" DataType="text" Length="13" SASFieldName="QORIG">
        <Description>
          <TranslatedText xml:lang="en">Origin</TranslatedText>
        </Description>
        <def:Origin Type="Assigned" Source="Sponsor"/>
      </ItemDef>
      <ItemDef OID="IT.SUPPDM.QEVAL" Name="QEVAL" DataType="text" Length="200" SASFieldName="QEVAL"
        def:CommentOID="COM.DM2">
        <Description>
          <TranslatedText xml:lang="en">Evaluator</TranslatedText>
        </Description>
        <def:Origin Type="Assigned" Source="Sponsor"/>
      </ItemDef>
      <ItemDef OID="IT.DS.STUDYID" Name="STUDYID" DataType="text" Length="12" SASFieldName="STUDYID">
        <Description>
          <TranslatedText xml:lang="en">Study Identifier</TranslatedText>
        </Description>
        <def:Origin Type="Protocol" Source="Sponsor"/>
      </ItemDef>
      <ItemDef OID="IT.DS.DOMAIN" Name="DOMAIN" DataType="text" Length="2" SASFieldName="DOMAIN">
        <Description>
          <TranslatedText xml:lang="en">Domain Abbreviation</TranslatedText>
        </Description>
        <CodeListRef CodeListOID="CL.DOMAIN_DS"/>
        <def:Origin Type="Assigned" Source="Sponsor"/>
      </ItemDef>
      <ItemDef OID="IT.DS.USUBJID" Name="USUBJID" DataType="text" Length="8" SASFieldName="USUBJID">
        <Description>
          <TranslatedText xml:lang="en">Unique Subject Identifier</TranslatedText>
        </Description>
        <def:Origin Type="Assigned" Source="Sponsor"/>
      </ItemDef>
      <ItemDef OID="IT.DS.DSSEQ" Name="DSSEQ" DataType="integer" Length="3" SASFieldName="DSSEQ">
        <Description>
          <TranslatedText xml:lang="en">Sequence Number</TranslatedText>
        </Description>
        <def:Origin Type="Derived" Source="Sponsor"/>
      </ItemDef>
      <ItemDef OID="IT.DS.DSLNKID" Name="DSLNKID" DataType="text" Length="50" SASFieldName="DSLNKID">
        <Description>
          <TranslatedText xml:lang="en">Link ID</TranslatedText>
        </Description>
        <def:Origin Type="Collected" Source="Investigator">
          <def:DocumentRef leafID="LF.acrf">
            <def:PDFPageRef PageRefs="27 28" Type="PhysicalRef"/>
          </def:DocumentRef>
        </def:Origin>
      </ItemDef>
      <ItemDef OID="IT.DS.DSTERM" Name="DSTERM" DataType="text" Length="200" SASFieldName="DSTERM">
        <Description>
          <TranslatedText xml:lang="en">Reported Term for the Disposition Event</TranslatedText>
        </Description>
        <def:ValueListRef ValueListOID="VL.DSTERM"/>
      </ItemDef>
      <ItemDef OID="IT.DS.DSDECOD" Name="DSDECOD" DataType="text" Length="29" SASFieldName="DSDECOD">
        <Description>
          <TranslatedText xml:lang="en">Standardized Disposition Term</TranslatedText>
        </Description>
        <def:ValueListRef ValueListOID="VL.DSDECOD"/>
      </ItemDef>
      <ItemDef OID="IT.DS.DSCAT" Name="DSCAT" DataType="text" Length="18" SASFieldName="DSCAT"
        def:CommentOID="COM.DS1">
        <Description>
          <TranslatedText xml:lang="en">Category for Disposition Event</TranslatedText>
        </Description>
        <CodeListRef CodeListOID="CL.DSCAT"/>
        <def:Origin Type="Assigned" Source="Sponsor">
          <def:DocumentRef leafID="LF.acrf">
            <def:PDFPageRef PageRefs="5 27 28" Type="PhysicalRef"/>
          </def:DocumentRef>
        </def:Origin>
      </ItemDef>
      <ItemDef OID="IT.DS.DSSCAT" Name="DSSCAT" DataType="text" Length="19" SASFieldName="DSSCAT"
        def:CommentOID="COM.DS1">
        <Description>
          <TranslatedText xml:lang="en">Subcategory for Disposition Event</TranslatedText>
        </Description>
        <CodeListRef CodeListOID="CL.DSSCAT"/>
        <def:Origin Type="Assigned" Source="Sponsor">
          <def:DocumentRef leafID="LF.acrf">
            <def:PDFPageRef PageRefs="27 28" Type="PhysicalRef"/>
          </def:DocumentRef>
        </def:Origin>
      </ItemDef>
      <ItemDef OID="IT.DS.EPOCH" Name="EPOCH" DataType="text" Length="9" SASFieldName="EPOCH">
        <Description>
          <TranslatedText xml:lang="en">Epoch</TranslatedText>
        </Description>
        <CodeListRef CodeListOID="CL.EPOCH"/>
        <def:Origin Type="Derived" Source="Sponsor"/>
      </ItemDef>
      <ItemDef OID="IT.DS.DSSTDTC" Name="DSSTDTC" DataType="date" SASFieldName="DSSTDTC">
        <Description>
          <TranslatedText xml:lang="en">Start Date/Time of Disposition Event</TranslatedText>
        </Description>
        <def:Origin Type="Collected" Source="Investigator">
          <def:DocumentRef leafID="LF.acrf">
            <def:PDFPageRef PageRefs="5 27 28" Type="PhysicalRef"/>
          </def:DocumentRef>
        </def:Origin>
      </ItemDef>
      <ItemDef OID="IT.DS.DSSTDY" Name="DSSTDY" DataType="integer" Length="8" SASFieldName="DSSTDY">
        <Description>
          <TranslatedText xml:lang="en">Study Day of Start of Disposition Event</TranslatedText>
        </Description>
        <def:Origin Type="Derived" Source="Sponsor"/>
      </ItemDef>
      <ItemDef OID="IT.EC.STUDYID" Name="STUDYID" DataType="text" Length="12" SASFieldName="STUDYID">
        <Description>
          <TranslatedText xml:lang="en">Study Identifier</TranslatedText>
        </Description>
        <def:Origin Type="Protocol" Source="Sponsor"/>
      </ItemDef>
      <ItemDef OID="IT.EC.DOMAIN" Name="DOMAIN" DataType="text" Length="2" SASFieldName="DOMAIN">
        <Description>
          <TranslatedText xml:lang="en">Domain Abbreviation</TranslatedText>
        </Description>
        <CodeListRef CodeListOID="CL.DOMAIN_EC"/>
        <def:Origin Type="Assigned" Source="Sponsor"/>
      </ItemDef>
      <ItemDef OID="IT.EC.USUBJID" Name="USUBJID" DataType="text" Length="8" SASFieldName="USUBJID">
        <Description>
          <TranslatedText xml:lang="en">Unique Subject Identifier</TranslatedText>
        </Description>
        <def:Origin Type="Assigned" Source="Sponsor"/>
      </ItemDef>
      <ItemDef OID="IT.EC.SPDEVID" Name="SPDEVID" DataType="text" Length="200" SASFieldName="SPDEVID">
        <Description>
          <TranslatedText xml:lang="en">Sponsor Device Identifier</TranslatedText>
        </Description>
        <def:Origin Type="Assigned" Source="Sponsor"/>
      </ItemDef>
      <ItemDef OID="IT.EC.ECSEQ" Name="ECSEQ" DataType="integer" Length="3" SASFieldName="ECSEQ">
        <Description>
          <TranslatedText xml:lang="en">Sequence Number</TranslatedText>
        </Description>
        <def:Origin Type="Derived" Source="Sponsor"/>
      </ItemDef>
      <ItemDef OID="IT.EC.ECTRT" Name="ECTRT" DataType="text" Length="10" SASFieldName="ECTRT">
        <Description>
          <TranslatedText xml:lang="en">Name of Treatment</TranslatedText>
        </Description>
        <CodeListRef CodeListOID="CL.EXTRT"/>
        <def:Origin Type="Assigned" Source="Sponsor"/>
      </ItemDef>
      <ItemDef OID="IT.EC.ECPRESP" Name="ECPRESP" DataType="text" Length="1" SASFieldName="ECPRESP">
        <Description>
          <TranslatedText xml:lang="en">Pre-Specified</TranslatedText>
        </Description>
        <CodeListRef CodeListOID="CL.NY_NY"/>
        <def:Origin Type="Assigned" Source="Sponsor"/>
      </ItemDef>
      <ItemDef OID="IT.EC.ECOCCUR" Name="ECOCCUR" DataType="text" Length="1" SASFieldName="ECOCCUR">
        <Description>
          <TranslatedText xml:lang="en">Occurrence</TranslatedText>
        </Description>
        <CodeListRef CodeListOID="CL.NY_NY"/>
        <def:Origin Type="Collected" Source="Investigator">
          <def:DocumentRef leafID="LF.acrf">
            <def:PDFPageRef PageRefs="14" Type="PhysicalRef"/>
          </def:DocumentRef>
        </def:Origin>
      </ItemDef>
      <ItemDef OID="IT.EC.ECDOSE" Name="ECDOSE" DataType="integer" Length="8" SASFieldName="ECDOSE">
        <Description>
          <TranslatedText xml:lang="en">Dose</TranslatedText>
        </Description>
        <def:Origin Type="Assigned" Source="Investigator">
          <def:DocumentRef leafID="LF.acrf">
            <def:PDFPageRef PageRefs="14" Type="PhysicalRef"/>
          </def:DocumentRef>
        </def:Origin>
      </ItemDef>
      <ItemDef OID="IT.EC.ECDOSU" Name="ECDOSU" DataType="text" Length="2" SASFieldName="ECDOSU">
        <Description>
          <TranslatedText xml:lang="en">Dose Units</TranslatedText>
        </Description>
        <CodeListRef CodeListOID="CL.UNIT_ECDOSU"/>
        <def:Origin Type="Assigned" Source="Investigator">
          <def:DocumentRef leafID="LF.acrf">
            <def:PDFPageRef PageRefs="14" Type="PhysicalRef"/>
          </def:DocumentRef>
        </def:Origin>
      </ItemDef>
      <ItemDef OID="IT.EC.ECDOSFRM" Name="ECDOSFRM" DataType="text" Length="9" SASFieldName="ECDOSFRM">
        <Description>
          <TranslatedText xml:lang="en">Dose Form</TranslatedText>
        </Description>
        <CodeListRef CodeListOID="CL.FRM_ECEX"/>
        <def:Origin Type="Assigned" Source="Sponsor"/>
      </ItemDef>
      <ItemDef OID="IT.EC.ECDOSFRQ" Name="ECDOSFRQ" DataType="text" Length="2" SASFieldName="ECDOSFRQ">
        <Description>
          <TranslatedText xml:lang="en">Dosing Frequency per Interval</TranslatedText>
        </Description>
        <CodeListRef CodeListOID="CL.FREQ_ECEX"/>
        <def:Origin Type="Assigned" Source="Sponsor"/>
      </ItemDef>
      <ItemDef OID="IT.EC.ECROUTE" Name="ECROUTE" DataType="text" Length="12" SASFieldName="ECROUTE">
