STUDYID,DOMAIN,USUBJID,LBSEQ,LBTESTCD,LBTEST,LBCAT,LBORRESU,LBORNRLO,LBORNRHI,LBSTRESC,LBSTRESN,LBSTRESU,LBSTNRLO,LBSTNRHI,LBNRIND,LBLOBXFL,VISITNUM,VISIT,EPOCH,LBDTC,LBDY,LBDRVFL,LBORRES
CDISCPILOT01,LB,CDISC001,1,ALB,Albumin,CHEMISTRY,g/dL,3.5,4.6,39,39,g/L,35,46,NORMAL,Y,1,SCREENING 1,SCREENING,2012-11-23T11:20,-7,Y,3.9
CDISCPILOT01,LB,CDISC001,2,ALP,Alkaline Phosphatase,CHEMISTRY,U/L,35,115,93,93,U/L,35,115,NORMAL,Y,1,SCREENING 1,SCREENING,2012-11-23T11:20,-7,,93
