STUDYID,DOMAIN,USUBJID,AGSEQ,AGTRT,AGCAT,AGSCAT,AGPRESP,AGOCCUR,AGDOSE,AGDOSTXT,AGDOSU,AGROUTE,VISIT,AGENDTC
XYZ,AG,XYZ-001-001,1.0,SALINE,CHALLENGE AGENT,DFAJF,Y,Y,0.0,,SQ-u/mL,RESPIRATORY (INHALATION),SCREENING,2010-11-07T10:56:00
XYZ,AG,XYZ-001-001,2.0,GRASS,CHALLENGE AGENT,,Y,Y,250.0,,,RESPIRATORY (INHALATION),SCREENING,2010-11-07T11:19:00
XYZ,AG,XYZ-001-001,3.0,GRASS,CHALLENGE AGENT,,Y,Y,1000.0,,SQ-u/mL,RESPIRATORY (INHALATION),SCREENING,2010-11-07T11:43:00
XYZ,AG,XYZ-001-001,4.0,GRASS,CHALLENGE AGENT,,Y,Y,2000.0,,SQ-u/mL,RESPIRATORY (INHALATION),SCREENING,2010-11-07T12:06:00
