STUDYID,DOMAIN,USUBJID,ECSEQ,ECLNKID,ECTRT,ECCAT,ECSCAT
ABC,EC,ABC1001,1.0,A2-20110114,BOTTLE A,FIRST TO LAST DOSE INTERVAL
ABC,EC,ABC2001,1.0,A2-20110114,BOTTLE A,EXCEPTION DOSE,HIGHLIGHTED DOSE
ABC,EC,ABC2001,2.0,A0-20110124,BOTTLE A,EXCEPTION DOSE,HIGHLIGHTED DOSE
ABC,EC,ABC2001,3.0,A2-20110125,BOTTLE A,EXCEPTION DOSE,HIGHLIGHTED DOSE
