STUDYID,DOMAIN,USUBJID,FOCID,MASEQ,MASPID,MATESTCD,MATEST,MAORRES,MASTRESC,MASPEC,MASPCUFL,MABLFL,VISITNUM,VISIT,MADTC,MADY
CDISC-TEST,MA,CDISC-TEST-001,,1,46,GROSPATH,Clinical Signs Follow-up,"Discoloration dark, mucosal",Discoloration,,N,,100,VISIT 1 (WEEK -2),2019-02-25,-15
CDISC-TEST,MA,CDISC-TEST-001,,1,46,GROSPATH,Clinical Signs Follow-up,"Discoloration dark, mucosal",Discoloration,,,,100,VISIT 1 (WEEK -2),2019-02-25,-15
