STUDYID,DOMAIN,USUBJID,MBSEQ,MBREFID,MBLNKID,MBTESTCD,MBTEST,MBORRES,MBSTRESC,MBNAM,MBSPEC,MBLOC,MBMETHOD,VISITNUM,VISIT,MBDTC
ABC,MB,ABC-001-002,1,SPEC01,1,MCORGIDN,Microbial Organism Identification,ENTEROCOCCUS FAECALIS,ENTEROCOCCUS FAECALIS,CENTRAL LAB ABC,FLUID,SKIN,"MICROBIAL CULTURE, SOLID",1,VISIT 1,2005-07-21T08:00
ABC,MB,ABC-001-002,2,SPEC01,2,MCORGIDN,Microbial Organism Identification,ENTEROCOCCUS FAECALIS,ENTEROCOCCUS FAECALIS,LOCAL LAB XYZ,FLUID,SKIN,"MICROBIAL CULTURE, SOLID",1,VISIT 1,2005-07-21T08:00
