STUDYID,DOMAIN,USUBJID,DSSEQ,DSTERM,DSDECOD,DSCAT,DSSCAT,EPOCH,DSDTC,DSSTDTC,DSDY,DSSTDY
CDISCPILOT01,DS,CDISC010,1,INFORMED CONSENT OBTAINED,INFORMED CONSENT OBTAINED,PROTOCOL MILESTONE,MAIN INFORMED CONSENT,,2022-10-27T09:17,2022-10-27 00:00:00,-17,-17
CDISCPILOT01,DS,CDISC010,2,COMPLETED,COMPLETED,DISPOSITION EVENT,SCREENING,SCREENING,2022-10-27T09:18,2022-10-27T09:18,-17,-17
CDISCPILOT01,DS,CDISC010,3,RANDOMIZATION CODE ALLOCATED,RANDOMIZATION CODE ALLOCATED,PROTOCOL MILESTONE,RANDOMIZATION,,2022-11-13T08:24,2022-11-13T08:24,1,1
CDISCPILOT01,DS,CDISC010,4,COMPLETED,COMPLETED,DISPOSITION EVENT,END OF TREATMENT,FIRST TREATMENT EPOCH,2022-11-13T09:10,2022-11-13T09:10,1,1
CDISCPILOT01,DS,CDISC010,5,COMPLETED,COMPLETED,DISPOSITION EVENT,END OF TREATMENT,SECOND TREATMENT EPOCH,2022-11-17T09:10,2022-11-17T09:10,5,5
CDISCPILOT01,DS,CDISC010,6,COMPLETED,COMPLETED,DISPOSITION EVENT,END OF TREATMENT,THIRD TREATMENT EPOCH,2022-11-21T09:10,2022-11-21T09:10,9,9
CDISCPILOT01,DS,CDISC010,7,COMPLETED,COMPLETED,DISPOSITION EVENT,END OF STUDY,FOLLOW-UP,2022-12-15T13:28,2022-11-28 00:00:00,33,16
