{
    "rule": {
        "Authorities": [
            {
                "Organization": "CDISC",
                "Standards": [
                    {
                        "Name": "SDTMIG",
                        "References": [
                            {
                                "Citations": [
                                    {
                                        "Document": "IG v3.4",
                                        "Section": "4.4.10",
                                        "Cited_Guidance": "Within the context that defines uniqueness for a time point, there is likely to be a one-to-one relationship between most values of --TPT and --ELTM. However, since --ELTM can only be populated with ISO 8601 periods of time (as described in Section 4.4.3, Intervals of Time and Use of Duration for --DUR Variables), --ELTM may not be populated for all time points. For example, --ELTM is likely to be null for time points described by text such as 'pre-dose' or 'before breakfast.' When --ELTM is populated, if two subjects have records with the same values of DOMAIN, VISITNUM, --TPTREF, and --TPTNUM, then these records may not have different values in --ELTM."
                                    }
                                ],
                                "Origin": "SDTM and SDTMIG Conformance Rules",
                                "Version": "2.0",
                                "Rule_Identifier": {
                                    "Id": "CG0241",
                                    "Version": "1"
                                }
                            }
                        ],
                        "Version": "3.4"
                    },
                    {
                        "Name": "SDTMIG",
                        "References": [
                            {
                                "Citations": [
                                    {
                                        "Document": "IG v3.3",
                                        "Section": "4.4.10",
                                        "Cited_Guidance": "Within the context that defines uniqueness for a time point, there is likely to be a one-to-one relationship between most values of --TPT and --ELTM. However, since --ELTM can only be populated with ISO 8601 periods of time (as described in Section 4.1.4.3, Intervals of Time and Use of Duration for --DUR Variables), --ELTM may not be populated for all time points. For example, --ELTM is likely to be null for time points described by text such as 'pre-dose' or 'before breakfast.' When --ELTM is populated, if two subjects have records with the same values of DOMAIN, VISITNUM, --TPTREF, and --TPTNUM, then these records may not have different values in --ELTM."
                                    }
                                ],
                                "Origin": "SDTM and SDTMIG Conformance Rules",
                                "Version": "2.0",
                                "Rule_Identifier": {
                                    "Id": "CG0241",
                                    "Version": "1"
                                }
                            }
                        ],
                        "Version": "3.3"
                    },
                    {
                        "Name": "SDTMIG",
                        "References": [
                            {
                                "Citations": [
                                    {
                                        "Document": "IG v3.2",
                                        "Section": "4.1.4.10",
                                        "Cited_Guidance": "Within the context that defines uniqueness for a time point, there is likely to be a one-to-one relationship between most values of --TPT and --ELTM. However, since --ELTM can only be populated with ISO 8601 periods of time (as described in Section 4.1.4.3, Intervals of Time and Use of Duration for --DUR Variables), --ELTM may not be populated for all time points. For example, --ELTM is likely to be null for time points described by text such as 'pre-dose' or 'before breakfast.' When --ELTM is populated, if two subjects have records with the same values of DOMAIN, VISITNUM, --TPTREF, and --TPTNUM, then these records may not have different values in --ELTM."
                                    }
                                ],
                                "Origin": "SDTM and SDTMIG Conformance Rules",
                                "Version": "2.0",
                                "Rule_Identifier": {
                                    "Id": "CG0241",
                                    "Version": "1"
                                }
                            }
                        ],
                        "Version": "3.2"
                    },
                    {
                        "Name": "TIG",
                        "References": [
                            {
                                "Citations": [
                                    {
                                        "Document": "TIG 1.0",
                                        "Item": "Sub Section Timing Relative to Reference Points Num 3",
                                        "Section": "2.8.7.5",
                                        "Cited_Guidance": "Represents the planned elapsed time from the fixed timepoint reference to the planned observation. The value of this variable is usually also reflected in the value of variable --TPT."
                                    }
                                ],
                                "Origin": "TIG Conformance Rules",
                                "Version": "1.0",
                                "Rule_Identifier": {
                                    "Id": "TIG0449",
                                    "Version": "1"
                                }
                            }
                        ],
                        "Substandard": "SDTM",
                        "Version": "1.0"
                    }
                ]
            }
        ],
        "Check": {
            "all": [
                {
                    "name": "--TPT",
                    "operator": "non_empty"
                },
                {
                    "name": "--TPTNUM",
                    "operator": "non_empty"
                },
                {
                    "name": "--ELTM",
                    "operator": "non_empty"
                },
                {
                    "name": "--ELTM",
                    "operator": "is_inconsistent_across_dataset",
                    "value": [
                        "DOMAIN",
                        "VISITNUM",
                        "--TPTREF",
                        "--TPTNUM"
                    ]
                }
            ]
        },
        "Core": {
            "Id": "CORE-000142",
            "Status": "Published",
            "Version": "1"
        },
        "Description": "Raise an error when --TPT ^= null and --TPTNUM ^= null and --ELTM ^= null and --ELTM does not have the same value across records with the same values of DOMAIN, VISITNUM, --TPTREF, and --TPTNUM.",
        "Executability": "Fully Executable",
        "Outcome": {
            "Message": "--ELTM is not the same value across records with the same values of DOMAIN, VISITNUM, --TPTREF, and --TPTNUM.",
            "Output_Variables": [
                "--TPT",
                "--TPTNUM",
                "--ELTM",
                "VISITNUM",
                "DOMAIN"
            ]
        },
        "Scope": {
            "Classes": {
                "Include": [
                    "ALL"
                ]
            },
            "Domains": {
                "Include": [
                    "ALL"
                ]
            },
            "Use_Case": "INDH"
        },
        "Sensitivity": "Record",
        "Rule_Type": "Record Data"
    },
    "datasets": [
        {
            "filename": "ft.xpt",
            "label": "Functional Tests",
            "domain": "FT",
            "variables": [
                {
                    "name": "STUDYID",
                    "label": "Study Identifier",
                    "type": "Char",
                    "length": 12
                },
                {
                    "name": "DOMAIN",
                    "label": "Domain Abbreviation",
                    "type": "Char",
                    "length": 2
                },
                {
                    "name": "USUBJID",
                    "label": "Unique Subject Identifier",
                    "type": "Char",
                    "length": 8
                },
                {
                    "name": "FTSEQ",
                    "label": "Sequence Number",
                    "type": "Num",
                    "length": 8
                },
                {
                    "name": "FTTESTCD",
                    "label": "Short Name of Test",
                    "type": "Char",
                    "length": 7
                },
                {
                    "name": "FTTEST",
                    "label": "Name of Test",
                    "type": "Char",
                    "length": 23
                },
                {
                    "name": "FTCAT",
                    "label": "Category",
                    "type": "Char",
                    "length": 8
                },
                {
                    "name": "FTSCAT",
                    "label": "Subcategory",
                    "type": "Char",
                    "length": 200
                },
                {
                    "name": "FTORRES",
                    "label": "Result or Finding in Original Units",
                    "type": "Char",
                    "length": 12
                },
                {
                    "name": "FTSTRESC",
                    "label": "Result or Finding in Standard Format",
                    "type": "Char",
                    "length": 200
                },
                {
                    "name": "FTSTRESN",
                    "label": "Numeric Result/Finding in Standard Units",
                    "type": "Num",
                    "length": 8
                },
                {
                    "name": "FTLOBXFL",
                    "label": "Last Observation Before Exposure Flag",
                    "type": "Char",
                    "length": 1
                },
                {
                    "name": "FTREPNUM",
                    "label": "Repetition Number",
                    "type": "Num",
                    "length": 8
                },
                {
                    "name": "VISITNUM",
                    "label": "Visit Number",
                    "type": "Num",
                    "length": 8
                },
                {
                    "name": "VISIT",
                    "label": "Visit Name",
                    "type": "Char",
                    "length": 200
                },
                {
                    "name": "EPOCH",
                    "label": "Epoch",
                    "type": "Char",
                    "length": 9
                },
                {
                    "name": "FTDTC",
                    "label": "Date/Time of Test",
                    "type": "Char",
                    "length": 19
                },
                {
                    "name": "FTDY",
                    "label": "Study Day of Test",
                    "type": "Num",
                    "length": 8
                },
                {
                    "name": "FTTPT",
                    "label": "Planned Time Point Name",
                    "type": "Char",
                    "length": 200
                },
                {
                    "name": "FTTPTNUM",
                    "label": "Planned Time Point Number",
                    "type": "Num",
                    "length": 8
                },
                {
                    "name": "FTELTM",
                    "label": "Planned Elapsed Time from Time Point Ref",
                    "type": "Char",
                    "length": 200
                },
                {
                    "name": "FTTPTREF",
                    "label": "Time Point Reference",
                    "type": "Char",
                    "length": 200
                }
            ],
            "records": {
                "STUDYID": [
                    "CDISCPILOT01",
                    "CDISCPILOT01",
                    "CDISCPILOT01",
                    "CDISCPILOT01",
                    "CDISCPILOT01",
                    "CDISCPILOT01"
                ],
                "DOMAIN": [
                    "FT",
                    "FT",
                    "FT",
                    "FT",
                    "FT",
                    "FT"
                ],
                "USUBJID": [
                    "CDISC001",
                    "CDISC001",
                    "CDISC007",
                    "CDISC007",
                    "CDISC008",
                    "CDISC008"
                ],
                "FTSEQ": [
                    120,
                    121,
                    134,
                    135,
                    134,
                    135
                ],
                "FTTESTCD": [
                    "AVL0201",
                    "AVL0202",
                    "AVL0215",
                    "AVL0216",
                    "AVL0215",
                    "AVL0216"
                ],
                "FTTEST": [
                    "AVL02-List A Word 1",
                    "AVL02-List A Word 2",
                    "AVL02-List A Word 15",
                    "AVL02-List A Word 16",
                    "AVL02-List A Word 15",
                    "AVL02-List A Word 16"
                ],
                "FTCAT": [
                    "AVLT-REY",
                    "AVLT-REY",
                    "AVLT-REY",
                    "AVLT-REY",
                    "AVLT-REY",
                    "AVLT-REY"
                ],
                "FTSCAT": [
                    "FORM 1",
                    "FORM 1",
                    "FORM 1",
                    "FORM 1",
                    "FORM 1",
                    "FORM 1"
                ],
                "FTORRES": [
                    "RECALLED",
                    "RECALLED",
                    "RECALLED",
                    "RECALLED",
                    "RECALLED",
                    "RECALLED"
                ],
                "FTSTRESC": [
                    "RECALLED",
                    "RECALLED",
                    "RECALLED",
                    "RECALLED",
                    "RECALLED",
                    "RECALLED"
                ],
                "FTSTRESN": [
                    null,
                    null,
                    null,
                    null,
                    null,
                    null
                ],
                "FTLOBXFL": [
                    "Y",
                    "Y",
                    "",
                    "",
                    "",
                    ""
                ],
                "FTREPNUM": [
                    7,
                    7,
                    7,
                    7,
                    7,
                    7
                ],
                "VISITNUM": [
                    2,
                    2,
                    201,
                    201,
                    201,
                    202
                ],
                "VISIT": [
                    "SCREENING 2",
                    "SCREENING 2",
                    "EARLY DISCONTINUATION RETRIEVAL",
                    "EARLY DISCONTINUATION RETRIEVAL",
                    "EARLY DISCONTINUATION RETRIEVAL",
                    "EARLY DISCONTINUATION RETRIEVAL"
                ],
                "EPOCH": [
                    "SCREENING",
                    "SCREENING",
                    "TREATMENT",
                    "TREATMENT",
                    "TREATMENT",
                    "TREATMENT"
                ],
                "FTDTC": [
                    "2012-11-28T13:00",
                    "2012-11-28T13:00",
                    "2013-06-20T10:00",
                    "2013-06-20T10:00",
                    "2013-07-20T10:00",
                    "2013-07-20T10:00"
                ],
                "FTDY": [
                    -2,
                    -2,
                    167,
                    167,
                    197,
                    197
                ],
                "FTTPT": [
                    "30 MIN POST",
                    "30 MIN POST",
                    "90 MIN POST",
                    "90 MIN POST",
                    "91 MIN POST",
                    "91 MIN POST"
                ],
                "FTTPTNUM": [
                    1,
                    1,
                    2,
                    2,
                    1,
                    2
                ],
                "FTELTM": [
                    "PT30M",
                    "PT30M",
                    "PT1H",
                    "PT1H",
                    "PT2H",
                    "PT1H"
                ],
                "FTTPTREF": [
                    "DOSE",
                    "DOSE",
                    "BREAKFAST1",
                    "BREAKFAST",
                    "BREAKFAST",
                    "BREAKFAST"
                ]
            }
        }
    ],
    "codelists": []
}