STUDYID,DOMAIN,USUBJID,SPDEVID,EXSEQ,EXTRT,EXDOSE,EXDOSU,EXDOSFRM,EXDOSFRQ,EXROUTE,EXLOT,EPOCH,EXSTDTC,EXENDTC,EXSTDY,EXENDY
CDISCPILOT01,EX,CDISC001,DEV0001,2,ZANOMALINE,-2,mg,INJECTION,QD,SUBCUTANEOUS,SDS580-359,TREATMENT,2012-12-01,2012-12-01,2,2
CDISCPILOT01,EX,CDISC001,DEV0001,3,ZANOMALINE,-54,mg,INJECTION,QD,SUBCUTANEOUS,SDS580-359,TREATMENT,2012-12-02,2012-12-02,0,3
CDISCPILOT01,EX,CDISC001,DEV0001,3,ZANOMALINE,-1,mg,INJECTION,QD,SUBCUTANEOUS,SDS580-359,TREATMENT,2012-12-03,2012-12-03,4,4
CDISCPILOT01,EX,CDISC001,DEV0001,1,ZANOMALINE,54,mg,INJECTION,QD,SUBCUTANEOUS,SDS580-359,TREATMENT,2012-11-30,2012-11-30,1,1
