USUBJID,EXSTDTC,PCDTC,ADTM,VISITNUM,VISIT,AVISIT,AVISITN,PCTPT,PCTPTNUM,ATPT,ATPTN,PCSTRESC,PCSTRESN,PCSTRESU,AVAL,ANCHOR1,ARELTM,ANCHOR2,ARELTM2,ARELTMU,ANL01FL,ANL02FL
1, 2013-07- 05T09:00, 2013-07- 05T08:55, 2013-07- 05T08:55,1.001, PERIOD1 _DAY1, DAY1,1, PRE_x0002_DOSE -1,,0, <1, 0H ,.,ng/mL ,0, EXSTDTC,-0.0833, PCDTC,0,HOURS, Y,Y
