STUDYID,DOMAIN,USUBJID,AESEQ,AESPID,AETERM,AELLT,AELLTCD,AEDECOD,AEPTCD,AEHLT,AEHLTCD,AEHLGT,AEHLGTCD,AEBODSYS,AEBDSYCD,AESOC,AESOCCD,AESEV,AESER,AEACN,AEREL,AEOUT,AESCAN,AESCONG,AESDISAB,AESDTH,AESHOSP,AESLIFE,AESOD,AESMIE,AESTDTC,AEENDTC,AESTDY,AESTRF,AEENRF
CDISCPILOT01,AE,CDISC001,727,744,UPSET STOMACH,Upset stomach,10046318,Abdominal discomfort,10000059,Gastrointestinal signs and symptoms NEC,10027678,Gastrointestinal signs and symptoms,10018012,Gastrointestinal disorders,10017947,Gastrointestinal disorders,10017947,MILD,N,,,RECOVERED/RESOLVED,Y,N,N,N,N,N,N,N,2019-03-24,,32,,ONGOING
CDISCPILOT01,AE,CDISC002,735,738,HEADACHE,Headache,10019211,Headache,10019211,Headaches NEC,10019233,Headaches,10019231,Nervous system disorders,10029205,Nervous system disorders,10029205,MILD,N,,,RECOVERED/RESOLVED,N,Y,N,N,N,N,N,N,2019-04-29,,68,BEFORE,ONGOING
CDISCPILOT01,AE,CDISC003,782,792,HEADACHE,Headache,10019211,Headache,10019211,Headaches NEC,10019233,Headaches,10019231,Nervous system disorders,10029205,Nervous system disorders,10029205,MILD,N,,,RECOVERED/RESOLVED,N,N,Y,N,N,N,N,N,2019-03-09,,28,,ONGOING
CDISCPILOT01,AE,CDISC004,783,798,HEADACHE,Headache,10019211,Headache,10019211,Headaches NEC,10019233,Headaches,10019231,Nervous system disorders,10029205,Nervous system disorders,10029205,MILD,N,,,RECOVERED/RESOLVED,N,N,N,Y,N,N,N,N,2019-03-15,,34,ONGOING,ONGOING
CDISCPILOT01,AE,CDISC005,839,842,HEADACHE,Headache,10019211,Headache,10019211,Headaches NEC,10019233,Headaches,10019231,Nervous system disorders,10029205,Nervous system disorders,10029205,MODERATE,N,,,RECOVERED/RESOLVED,N,N,N,N,Y,N,N,N,2019-05-08,,83,,ONGOING
CDISCPILOT01,AE,CDISC006,840,849,HYPERTENSION,Hypertension,10020772,Hypertension,10020772,Vascular hypertensive disorders NEC,10020774,Vascular hypertensive disorders,10057166,Vascular disorders,10047065,Vascular disorders,10047065,MILD,N,,,RECOVERED/RESOLVED,N,N,N,N,N,Y,N,N,2019-03-30,,44,,ONGOING
CDISCPILOT01,AE,CDISC007,843,838,HYPERTENSION,Hypertension,10020772,Hypertension,10020772,Vascular hypertensive disorders NEC,10020774,Vascular hypertensive disorders,10057166,Vascular disorders,10047065,Vascular disorders,10047065,MILD,N,,,RECOVERED/RESOLVED,N,N,N,N,N,N,Y,N,2019-07-10,,146,BEFORE,
CDISCPILOT01,AE,CDISC008,844,850,HYPOGLYCAEMIA,Hypoglycaemia,10020993,Hypoglycaemia,10020993,Hypoglycaemic conditions NEC,10021001,Glucose metabolism disorders (incl diabetes mellitus),10018424,Metabolism and nutrition disorders,10027433,Metabolism and nutrition disorders,10027433,MILD,N,,,RECOVERED/RESOLVED,N,N,N,N,N,N,N,Y,2019-03-26,,40,BEFORE,BEFORE
CDISCPILOT01,AE,CDISC009,881,899,CARDIAC ARREST,Cardiac arrest,10007515,Cardiac arrest,10007515,Ventricular arrhythmias and cardiac arrest,10047283,Cardiac arrhythmias,10007521,Cardiac disorders,10007541,Cardiac disorders,10007541,SEVERE,,,,NOT RECOVERED/NOT RESOLVED,N,Y,N,N,N,N,N,N,2019-08-31,,178,,BEFORE
CDISCPILOT01,AE,CDISC010,882,895,DIARRHOEA,Diarrhoea,10012735,Diarrhoea,10012735,Diarrhoea (excl infective),10012736,Gastrointestinal motility and defaecation conditions,10017977,Gastrointestinal disorders,10017947,Gastrointestinal disorders,10017947,MILD,,,,RECOVERED/RESOLVED,Y,,,,,,,,2019-04-18,,43,AFTER,
