dataset,variable,label,type,length
dm.xpt,STUDYID,Study Identifier,Char,12
dm.xpt,DOMAIN,Domain Abbreviation,Char,2
dm.xpt,USUBJID,Unique Subject Identifier,Char,8
dm.xpt,SUBJID,Subject Identifier for the Study,Char,4
dm.xpt,RFSTDTC,Subject Reference Start Date/Time,Char,10
dm.xpt,RFENDTC,Subject Reference End Date/Time,Char,10
dm.xpt,RFXSTDTC,Date/Time of First Study Treatment,Char,10
dm.xpt,RFXENDTC,Date/Time of Last Study Treatment,Char,10
dm.xpt,RFICDTC,Date/Time of Informed Consent,Char,10
dm.xpt,RFPENDTC,Date/Time of End of Participation,Char,10
dm.xpt,DTHDTC,Date/Time of Death,Char,10
dm.xpt,DTHFL,Subject Death Flag,Char,1
dm.xpt,SITEID,Study Site Identifier,Char,3
dm.xpt,BRTHDTC,Date/Time of Birth,Char,10
dm.xpt,AGE,Age,Num,8
dm.xpt,AGEU,Age Units,Char,5
dm.xpt,SEX,Sex,Char,1
dm.xpt,RACE,Race,Char,41
dm.xpt,ETHNIC,Ethnicity,Char,22
dm.xpt,ARMCD,Planned Arm Code,Char,8
dm.xpt,ARM,Description of Planned Arm,Char,28
dm.xpt,ACTARMCD,Actual Arm Code,Char,8
dm.xpt,ACTARM,Description of Actual Arm,Char,28
dm.xpt,ARMNRS,Reason Arm and/or Actual Arm is Null,Char,14
dm.xpt,ACTARMUD,Description of Unplanned Actual Arm,Char,200
dm.xpt,COUNTRY,Country,Char,3
ae.xpt,STUDYID,Study Identifier,Char,10
ae.xpt,DOMAIN,Domain Abbreviation,Char,2
ae.xpt,USUBJID,Unique Subject Identifier,Char,14
ae.xpt,AESEQ,Sequence Number,Num,8
ae.xpt,AESPID,Sponsor-Defined Identifier,Char,4
ae.xpt,AETERM,Reported Term for the Adverse Event,Char,38
ae.xpt,AELLT,Lowest Level Term,Char,38
ae.xpt,AELLTCD,Lowest Level Term Code,Num,8
ae.xpt,AEDECOD,Dictionary-Derived Term,Char,38
ae.xpt,AEPTCD,Preferred Term Code,Num,8
ae.xpt,AEHLT,High Level Term,Char,65
ae.xpt,AEHLTCD,High Level Term Code,Num,8
ae.xpt,AEHLGT,High Level Group Term,Char,55
ae.xpt,AEHLGTCD,High Level Group Term Code,Num,8
ae.xpt,AEBODSYS,Body System or Organ Class,Char,52
ae.xpt,AEBDSYCD,Body System or Organ Class Code,Num,8
ae.xpt,AESOC,Primary System Organ Class,Char,52
ae.xpt,AESOCCD,Primary System Organ Class Code,Num,8
ae.xpt,AESEV,Severity/Intensity,Char,8
ae.xpt,AESER,Serious Event,Char,1
ae.xpt,AEACN,Action Taken with Study Treatment,Char,1
ae.xpt,AEREL,Causality,Char,1
ae.xpt,AEOUT,Outcome of Adverse Event,Char,26
ae.xpt,AESCAN,Involves Cancer,Char,50
ae.xpt,AESCONG,Congenital Anomaly or Birth Defect,Char,50
ae.xpt,AESDISAB,Persist or Signif Disability/Incapacity,Char,50
ae.xpt,AESDTH,Results in Death,Char,50
ae.xpt,AESHOSP,Requires or Prolongs Hospitalization,Char,1
ae.xpt,AESLIFE,Is Life Threatening,Char,50
ae.xpt,AESOD,Occurred with Overdose,Char,50
ae.xpt,AESMIE,Other Medically Important Serious Event,Char,50
ae.xpt,AESTDTC,Start Date/Time of Adverse Event,Char,10
ae.xpt,AEENDTC,End Date/Time of Adverse Event,Char,1
ae.xpt,AESTDY,Study Day of Start of Adverse Event,Num,8
ae.xpt,AESTRF,End Relative to Reference Period,Char,50
ae.xpt,AEENRF,End Relative to Reference Period,Char,50
