STUDYID,DOMAIN,USUBJID,DSTERM,DSDECOD,DSCAT,EPOCH,DSSTDTC
CDISCCORE01,DS,015246-076-0003-00003,FUTURE USE OF SAMPLES INFORMED CONSENT OBTAINED,FUTURE USE OF SAMPLES INFORMED CONSENT OBTAINED,PROTOCOL MILESTONE,,2018-03-06
CDISCCORE01,DS,015246-203-0003-00001,STUDY INFORMED CONSENT OBTAINED,STUDY INFORMED CONSENT OBTAINED,PROTOCOL MILESTONE,,2018-03-06
CDISCCORE01,DS,015246-300-0004-00002,COMPLETED,COMPLETED,DISPOSITION EVENT,SCREENING,2018-03-30
CDISCCORE01,DS,015246-036-0002-00004,RANDOMIZED,RANDOMIZED,PROTOCOL MILESTONE,,2018-03-30T13:05
