dataset,variable,label,type,length
dm,STUDYID,Study Identifier,Char,10
dm,DOMAIN,Domain Abbreviation,Char,2
dm,USUBJID,Unique Subject Identifier,Char,14
dm,SUBJID,Subject Identifier for the Study,Char,3
dm,RFSTDTC,Subject Reference Start Date/Time,Char,10
dm,RFENDTC,Subject Reference End Date/Time,Char,10
dm,RFXSTDTC,Date/Time of First Study Treatment,Char,10
dm,RFXENDTC,Date/Time of Last Study Treatment,Char,10
dm,SITEID,Study Site Identifier,Char,3
dm,AGE,Age,Num,8
dm,AGEU,Age Units,Char,5
dm,SEX,Sex,Char,1
dm,ARMCD,Planned Arm Code,Char,1
dm,ARM,Description of Planned Arm,Char,13
dm,SETCD,Set Code,Char,6
tx,STUDYID,Study Identifier,Char,50
tx,DOMAIN,Domain Abbreviation,Char,50
tx,SETCD,Set Code,Char,8
tx,SET,Set Description,Char,20
tx,TXSEQ,Sequence Number,Num,1
tx,TXPARMCD,Trial Set Parameter Short Name,Char,8
tx,TXPARM,Trial Set Parameter,Char,40
tx,TXVAL,Trial Set Parameter Value,Char,50
