{
  "rule": {
    "Authority": {
      "Organization": "CDISC"
    },
    "Check": {
      "all": [
        {
          "any": [
            {
              "name": "AESCAN",
              "operator": "equal_to",
              "value": "Y"
            },
            {
              "name": "AESCONG",
              "operator": "equal_to",
              "value": "Y"
            },
            {
              "name": "AESDISAB",
              "operator": "equal_to",
              "value": "Y"
            },
            {
              "name": "AESDTH",
              "operator": "equal_to",
              "value": "Y"
            },
            {
              "name": "AESHOSP",
              "operator": "equal_to",
              "value": "Y"
            },
            {
              "name": "AESLIFE",
              "operator": "equal_to",
              "value": "Y"
            },
            {
              "name": "AESOD",
              "operator": "equal_to",
              "value": "Y"
            },
            {
              "name": "AESMIE",
              "operator": "equal_to",
              "value": "Y"
            }
          ]
        },
        {
          "name": "AESER",
          "operator": "not_equal_to",
          "value": "Y"
        }
      ]
    },
    "Citations": [
      {
        "Document": "SDTMIG v3.4",
        "Item": "Assumption 6a",
        "Section": "6.2.1",
        "Cited_Guidance": "If categories of serious events are collected secondarily to a leading question, as in the example below, the values of the variables that capture reasons an event is considered serious (i.e., AESCAN, AESCONG, etc.) may be null. For example, if Serious is answered \"No\", the values for these variables maybe null. However, if Serious is answered \"Yes\", at least one of them will have a \"Y\" response."
      },
      {
        "Document": "SDTMIG v3.3",
        "Item": "Assumption 6a",
        "Section": "6.2.1",
        "Cited_Guidance": "If categories of serious events are collected secondarily to a leading question, as in the example below, the values of the variables that capture reasons an event is considered serious (i.e., AESCAN, AESCONG, etc.) may be null. For example, if Serious is answered \"No\", the values for these variables maybe null. However, if Serious is answered \"Yes\", at least one of them will have a \"Y\" response."
      },
      {
        "Document": "SDTMIG v3.2",
        "Item": "Assumption 6a",
        "Section": "6.2.",
        "Cited_Guidance": "If categories of serious events are collected secondarily to a leading question, as in the example below, the values of the variables that capture reasons an event is considered serious (i.e., AESCAN, AESCONG, etc.) may be null. For example, if Serious is answered \"No\", the values for these variables may be null. However, if Serious is answered \"Yes\", at least one of them will have a \"Y\" response."
      }
    ],
    "Core": {
      "Id": "CDISC.SDTMIG.CG0041",
      "Version": "1"
    },
    "Description": "Raise an error when AESCAN, AESCONG, AESDISAB, AESDTH, AESHOSP, AESLIFE, AESOD or AESMIE = 'Y' and AESER = 'N' or is empty.",
    "Outcome": {
      "Message": "At least one of the Seriousness criteria (AESCAN, AESCONG, AESDISAB, AESDTH, AESHOSP, AESLIFE, AESOD or AESMIE)  = 'Y', but AESER = 'N' or empty.",
      "Output_Variables": [
        "AETERM",
        "AESTDTC",
        "AESER",
        "AESCAN",
        "AESCONG",
        "AESDISAB",
        "AESDTH",
        "AESHOSP",
        "AESLIFE",
        "AESOD",
        "AESMIE"
      ]
    },
    "References": [
      {
        "Origin": "SDTM and SDTMIG Conformance Rules",
        "Version": "2.0",
        "Rule_Identifier": {
          "Id": "CG0041",
          "Version": "1"
        }
      }
    ],
    "Scopes": {
      "Classes": {
        "Include": [
          "Events"
        ]
      },
      "Domains": {
        "Include": [
          "AE"
        ]
      },
      "Standards": [
        {
          "Name": "SDTMIG",
          "Version": "3.4"
        },
        {
          "Name": "SDTMIG",
          "Version": "3.3"
        },
        {
          "Name": "SDTMIG",
          "Version": "3.2"
        }
      ]
    },
    "Sensitivity": "Record",
    "Severity": "Error",
    "Rule_Type": "Functional Dependency"
  },
  "datasets": [
    {
      "filename": "ae.xpt",
      "label": "Adverse Events",
      "domain": "AE",
      "variables": [
        {
          "name": "STUDYID",
          "label": "Study Identifier",
          "type": "Char",
          "length": 10
        },
        {
          "name": "DOMAIN",
          "label": "Domain Abbreviation",
          "type": "Char",
          "length": 2
        },
        {
          "name": "USUBJID",
          "label": "Unique Subject Identifier",
          "type": "Char",
          "length": 14
        },
        {
          "name": "AESEQ",
          "label": "Sequence Number",
          "type": "Num",
          "length": 8
        },
        {
          "name": "AESPID",
          "label": "Sponsor-Defined Identifier",
          "type": "Char",
          "length": 4
        },
        {
          "name": "AETERM",
          "label": "Reported Term for the Adverse Event",
          "type": "Char",
          "length": 38
        },
        {
          "name": "AELLT",
          "label": "Lowest Level Term",
          "type": "Char",
          "length": 38
        },
        {
          "name": "AELLTCD",
          "label": "Lowest Level Term Code",
          "type": "Num",
          "length": 8
        },
        {
          "name": "AEDECOD",
          "label": "Dictionary-Derived Term",
          "type": "Char",
          "length": 38
        },
        {
          "name": "AEPTCD",
          "label": "Preferred Term Code",
          "type": "Num",
          "length": 8
        },
        {
          "name": "AEHLT",
          "label": "High Level Term",
          "type": "Char",
          "length": 65
        },
        {
          "name": "AEHLTCD",
          "label": "High Level Term Code",
          "type": "Num",
          "length": 8
        },
        {
          "name": "AEHLGT",
          "label": "High Level Group Term",
          "type": "Char",
          "length": 55
        },
        {
          "name": "AEHLGTCD",
          "label": "High Level Group Term Code",
          "type": "Num",
          "length": 8
        },
        {
          "name": "AEBODSYS",
          "label": "Body System or Organ Class",
          "type": "Char",
          "length": 52
        },
        {
          "name": "AEBDSYCD",
          "label": "Body System or Organ Class Code",
          "type": "Num",
          "length": 8
        },
        {
          "name": "AESOC",
          "label": "Primary System Organ Class",
          "type": "Char",
          "length": 52
        },
        {
          "name": "AESOCCD",
          "label": "Primary System Organ Class Code",
          "type": "Num",
          "length": 8
        },
        {
          "name": "AESEV",
          "label": "Severity/Intensity",
          "type": "Char",
          "length": 8
        },
        {
          "name": "AESER",
          "label": "Serious Event",
          "type": "Char",
          "length": 1
        },
        {
          "name": "AEACN",
          "label": "Action Taken with Study Treatment",
          "type": "Char",
          "length": 1
        },
        {
          "name": "AEREL",
          "label": "Causality",
          "type": "Char",
          "length": 1
        },
        {
          "name": "AEOUT",
          "label": "Outcome of Adverse Event",
          "type": "Char",
          "length": 26
        },
        {
          "name": "AESCAN",
          "label": "Involves Cancer",
          "type": "Char",
          "length": 50
        },
        {
          "name": "AESCONG",
          "label": "Congenital Anomaly or Birth Defect",
          "type": "Char",
          "length": 50
        },
        {
          "name": "AESDISAB",
          "label": "Persist or Signif Disability/Incapacity",
          "type": "Char",
          "length": 50
        },
        {
          "name": "AESDTH",
          "label": "Results in Death",
          "type": "Char",
          "length": 50
        },
        {
          "name": "AESHOSP",
          "label": "Requires or Prolongs Hospitalization",
          "type": "Char",
          "length": 1
        },
        {
          "name": "AESLIFE",
          "label": "Is Life Threatening",
          "type": "Char",
          "length": 50
        },
        {
          "name": "AESOD",
          "label": "Occurred with Overdose",
          "type": "Char",
          "length": 50
        },
        {
          "name": "AESMIE",
          "label": "Other Medically Important Serious Event",
          "type": "Char",
          "length": 50
        },
        {
          "name": "AESTDTC",
          "label": "Start Date/Time of Adverse Event",
          "type": "Char",
          "length": 10
        },
        {
          "name": "AEENDTC",
          "label": "End Date/Time of Adverse Event",
          "type": "Char",
          "length": 1
        },
        {
          "name": "AESTDY",
          "label": "Study Day of Start of Adverse Event",
          "type": "Num",
          "length": 8
        }
      ],
      "records": {
        "STUDYID": [
          "CDISC-TEST",
          "CDISC-TEST",
          "CDISC-TEST",
          "CDISC-TEST",
          "CDISC-TEST",
          "CDISC-TEST",
          "CDISC-TEST",
          "CDISC-TEST",
          "CDISC-TEST",
          "CDISC-TEST",
          "CDISC-TEST",
          "CDISC-TEST"
        ],
        "DOMAIN": [
          "AE",
          "AE",
          "AE",
          "AE",
          "AE",
          "AE",
          "AE",
          "AE",
          "AE",
          "AE",
          "AE",
          "AE"
        ],
        "USUBJID": [
          "CDISC-TEST-001",
          "CDISC-TEST-001",
          "CDISC-TEST-001",
          "CDISC-TEST-001",
          "CDISC-TEST-002",
          "CDISC-TEST-002",
          "CDISC-TEST-002",
          "CDISC-TEST-002",
          "CDISC-TEST-019",
          "CDISC-TEST-019",
          "CDISC-TEST-019",
          "CDISC-TEST-021"
        ],
        "AESEQ": [
          1,
          2,
          4,
          5,
          18,
          19,
          20,
          29,
          296,
          297,
          298,
          338
        ],
        "AESPID": [
          "1",
          "3",
          "15",
          "6",
          "18",
          "17",
          "22",
          "23",
          "305",
          "294",
          "297",
          "333"
        ],
        "AETERM": [
          "UPSET STOMACH",
          "UPSET STOMACH",
          "BACK PAIN",
          "DIARRHOEA",
          "BACK PAIN",
          "BRONCHITIS",
          "DIARRHOEA",
          "HYPOGLYCAEMIA",
          "DIARRHOEA",
          "HEADACHE",
          "HEADACHE",
          "HYPERTENSION"
        ],
        "AELLT": [
          "Upset stomach",
          "Upset stomach",
          "Back pain",
          "Diarrhoea",
          "Back pain",
          "Bronchitis",
          "Diarrhoea",
          "Hypoglycaemia",
          "Diarrhoea",
          "Headache",
          "Headache",
          "Hypertension"
        ],
        "AELLTCD": [
          10046318,
          10046318,
          10003988,
          10012735,
          10003988,
          10006451,
          10012735,
          10020993,
          10012735,
          10019211,
          10019211,
          10020772
        ],
        "AEDECOD": [
          "Abdominal discomfort",
          "Abdominal discomfort",
          "Back pain",
          "Diarrhoea",
          "Back pain",
          "Bronchitis",
          "Diarrhoea",
          "Hypoglycaemia",
          "Diarrhoea",
          "Headache",
          "Headache",
          "Hypertension"
        ],
        "AEPTCD": [
          10000059,
          10000059,
          10003988,
          10012735,
          10003988,
          10006451,
          10012735,
          10020993,
          10012735,
          10019211,
          10019211,
          10020772
        ],
        "AEHLT": [
          "Gastrointestinal signs and symptoms NEC",
          "Gastrointestinal signs and symptoms NEC",
          "Musculoskeletal and connective tissue pain and discomfort",
          "Diarrhoea (excl infective)",
          "Musculoskeletal and connective tissue pain and discomfort",
          "Lower respiratory tract and lung infections",
          "Diarrhoea (excl infective)",
          "Hypoglycaemic conditions NEC",
          "Diarrhoea (excl infective)",
          "Headaches NEC",
          "Headaches NEC",
          "Vascular hypertensive disorders NEC"
        ],
        "AEHLTCD": [
          10027678,
          10027678,
          10068757,
          10012736,
          10068757,
          10025101,
          10012736,
          10021001,
          10012736,
          10019233,
          10019233,
          10020774
        ],
        "AEHLGT": [
          "Gastrointestinal signs and symptoms",
          "Gastrointestinal signs and symptoms",
          "Musculoskeletal and connective tissue disorders NEC",
          "Gastrointestinal motility and defaecation conditions",
          "Musculoskeletal and connective tissue disorders NEC",
          "Infections - pathogen unspecified",
          "Gastrointestinal motility and defaecation conditions",
          "Glucose metabolism disorders (incl diabetes mellitus)",
          "Gastrointestinal motility and defaecation conditions",
          "Headaches",
          "Headaches",
          "Vascular hypertensive disorders"
        ],
        "AEHLGTCD": [
          10018012,
          10018012,
          10028393,
          10017977,
          10028393,
          10021879,
          10017977,
          10018424,
          10017977,
          10019231,
          10019231,
          10057166
        ],
        "AEBODSYS": [
          "Gastrointestinal disorders",
          "Gastrointestinal disorders",
          "Musculoskeletal and connective tissue disorders",
          "Gastrointestinal disorders",
          "Musculoskeletal and connective tissue disorders",
          "Infections and infestations",
          "Gastrointestinal disorders",
          "Metabolism and nutrition disorders",
          "Gastrointestinal disorders",
          "Nervous system disorders",
          "Nervous system disorders",
          "Vascular disorders"
        ],
        "AEBDSYCD": [
          10017947,
          10017947,
          10028395,
          10017947,
          10028395,
          10021881,
          10017947,
          10027433,
          10017947,
          10029205,
          10029205,
          10047065
        ],
        "AESOC": [
          "Gastrointestinal disorders",
          "Gastrointestinal disorders",
          "Musculoskeletal and connective tissue disorders",
          "Gastrointestinal disorders",
          "Musculoskeletal and connective tissue disorders",
          "Infections and infestations",
          "Gastrointestinal disorders",
          "Metabolism and nutrition disorders",
          "Gastrointestinal disorders",
          "Nervous system disorders",
          "Nervous system disorders",
          "Vascular disorders"
        ],
        "AESOCCD": [
          10017947,
          10017947,
          10028395,
          10017947,
          10028395,
          10021881,
          10017947,
          10027433,
          10017947,
          10029205,
          10029205,
          10047065
        ],
        "AESEV": [
          "MILD",
          "MILD",
          "MILD",
          "MILD",
          "MILD",
          "MILD",
          "MILD",
          "MILD",
          "MILD",
          "MILD",
          "MILD",
          "MILD"
        ],
        "AESER": [
          "Y",
          "N",
          "Y",
          "Y",
          "Y",
          "Y",
          "Y",
          "Y",
          "Y",
          "Y",
          "",
          "N"
        ],
        "AEACN": [
          "",
          "",
          "",
          "",
          "",
          "",
          "",
          "",
          "",
          "",
          "",
          ""
        ],
        "AEREL": [
          "",
          "",
          "",
          "",
          "",
          "",
          "",
          "",
          "",
          "",
          "",
          ""
        ],
        "AEOUT": [
          "RECOVERED/RESOLVED",
          "RECOVERED/RESOLVED",
          "RECOVERED/RESOLVED",
          "RECOVERED/RESOLVED",
          "RECOVERED/RESOLVED",
          "RECOVERED/RESOLVED",
          "RECOVERED/RESOLVED",
          "RECOVERED/RESOLVED",
          "RECOVERED/RESOLVED",
          "RECOVERED/RESOLVED",
          "RECOVERED/RESOLVED",
          "RECOVERED/RESOLVED"
        ],
        "AESCAN": [
          "Y",
          "N",
          "Y",
          "N",
          "N",
          "N",
          "N",
          "N",
          "N",
          "N",
          "",
          ""
        ],
        "AESCONG": [
          "Y",
          "N",
          "N",
          "Y",
          "N",
          "N",
          "N",
          "N",
          "N",
          "N",
          "",
          ""
        ],
        "AESDISAB": [
          "Y",
          "N",
          "N",
          "N",
          "N",
          "N",
          "Y",
          "N",
          "N",
          "N",
          "",
          ""
        ],
        "AESDTH": [
          "Y",
          "N",
          "N",
          "N",
          "N",
          "N",
          "N",
          "N",
          "Y",
          "N",
          "",
          ""
        ],
        "AESHOSP": [
          "Y",
          "N",
          "N",
          "N",
          "N",
          "N",
          "N",
          "N",
          "N",
          "Y",
          "",
          ""
        ],
        "AESLIFE": [
          "Y",
          "N",
          "N",
          "N",
          "N",
          "Y",
          "N",
          "N",
          "N",
          "N",
          "",
          ""
        ],
        "AESOD": [
          "Y",
          "N",
          "N",
          "N",
          "Y",
          "N",
          "N",
          "N",
          "N",
          "N",
          "",
          ""
        ],
        "AESMIE": [
          "Y",
          "N",
          "N",
          "N",
          "N",
          "N",
          "N",
          "Y",
          "N",
          "N",
          "",
          ""
        ],
        "AESTDTC": [
          "2019-05-21",
          "2019-06-15",
          "2019-04-29",
          "2019-08-11",
          "2019-02-28",
          "2019-02-19",
          "2019-04-22",
          "2019-04-05",
          "2019-05-03",
          "2019-06-24",
          "2019-08-11",
          "2019-03-19"
        ],
        "AEENDTC": [
          "",
          "",
          "",
          "",
          "",
          "",
          "",
          "",
          "",
          "",
          "",
          ""
        ],
        "AESTDY": [
          70,
          95,
          48,
          152,
          29,
          20,
          82,
          65,
          57,
          109,
          157,
          61
        ]
      }
    }
  ]
}