{
    "rule": {
        "Authorities": [
            {
                "Organization": "CDISC",
                "Standards": [
                    {
                        "Name": "SDTMIG",
                        "References": [
                            {
                                "Citations": [
                                    {
                                        "Document": "IG v3.4",
                                        "Item": "Asumtpion 6c",
                                        "Section": "6.2.1",
                                        "Cited_Guidance": "When a description of Other Medically Important Serious Adverse Events category is collected on a CRF, sponsors should place the description in the SUPPAE dataset using the standard supplemental qualifier name code AESOSP."
                                    }
                                ],
                                "Origin": "SDTM and SDTMIG Conformance Rules",
                                "Version": "2.0",
                                "Rule_Identifier": {
                                    "Id": "CG0043",
                                    "Version": "1"
                                }
                            }
                        ],
                        "Version": "3.4"
                    },
                    {
                        "Name": "SDTMIG",
                        "References": [
                            {
                                "Citations": [
                                    {
                                        "Document": "IG v3.2",
                                        "Item": "Assumption 6c",
                                        "Section": "6.2",
                                        "Cited_Guidance": "When a description of Other Medically Important Serious Adverse Events category is collected on a CRF, sponsors should place the description in the SUPPAE dataset using the standard supplemental qualifier name code AESOSP."
                                    }
                                ],
                                "Origin": "SDTM and SDTMIG Conformance Rules",
                                "Version": "2.0",
                                "Rule_Identifier": {
                                    "Id": "CG0043",
                                    "Version": "1"
                                }
                            }
                        ],
                        "Version": "3.2"
                    },
                    {
                        "Name": "SDTMIG",
                        "References": [
                            {
                                "Citations": [
                                    {
                                        "Document": "IG v3.3",
                                        "Item": "Assumption 6c",
                                        "Section": "6.2.1",
                                        "Cited_Guidance": "When a description of Other Medically Important Serious Adverse Events category is collected on a CRF, sponsors should place the description in the SUPPAE dataset using the standard supplemental qualifier name code AESOSP."
                                    }
                                ],
                                "Origin": "SDTM and SDTMIG Conformance Rules",
                                "Version": "2.0",
                                "Rule_Identifier": {
                                    "Id": "CG0043",
                                    "Version": "1"
                                }
                            }
                        ],
                        "Version": "3.3"
                    }
                ]
            }
        ],
        "Check": {
            "all": [
                {
                    "name": "QNAM",
                    "operator": "equal_to",
                    "value": "AESOSP",
                    "value_is_literal": true
                },
                {
                    "name": "AESMIE",
                    "operator": "not_equal_to",
                    "value": "Y"
                }
            ]
        },
        "Core": {
            "Id": "CDISC.SDTMIG.CG0043",
            "Status": "Draft",
            "Version": "1"
        },
        "Description": "When SUPPAE.QNAM=AESOSP is present, a record with AESMIE=Y should be present",
        "Executability": "Fully Executable",
        "Outcome": {
            "Message": "Missing AESMIE=Y where SUPPAE.QNAM=AESOSP",
            "Output_Variables": [
                "QNAM",
                "AESMIE"
            ]
        },
        "Scope": {
            "Classes": {
                "Include": [
                    "EVENTS"
                ]
            },
            "Domains": {
                "Include": [
                    "AE"
                ]
            }
        },
        "Sensitivity": "Record",
        "Match_Datasets": [
            {
                "Keys": [
                    "USUBJID"
                ],
                "Name": "SUPPAE",
                "Is_Relationship": true
            }
        ],
        "Rule_Type": "Record Data"
    },
    "datasets": [
        {
            "filename": "ae.xpt",
            "label": "Adverse Events",
            "domain": "AE",
            "variables": [
                {
                    "name": "STUDYID",
                    "label": "Study Identifier",
                    "type": "Char",
                    "length": 10
                },
                {
                    "name": "DOMAIN",
                    "label": "Domain Abbreviation",
                    "type": "Char",
                    "length": 2
                },
                {
                    "name": "USUBJID",
                    "label": "Unique Subject Identifier",
                    "type": "Char",
                    "length": 14
                },
                {
                    "name": "AESEQ",
                    "label": "Sequence Number",
                    "type": "Num",
                    "length": 8
                },
                {
                    "name": "AESPID",
                    "label": "Sponsor-Defined Identifier",
                    "type": "Char",
                    "length": 4
                },
                {
                    "name": "AETERM",
                    "label": "Reported Term for the Adverse Event",
                    "type": "Char",
                    "length": 38
                },
                {
                    "name": "AELLT",
                    "label": "Lowest Level Term",
                    "type": "Char",
                    "length": 38
                },
                {
                    "name": "AELLTCD",
                    "label": "Lowest Level Term Code",
                    "type": "Num",
                    "length": 8
                },
                {
                    "name": "AEDECOD",
                    "label": "Dictionary-Derived Term",
                    "type": "Char",
                    "length": 38
                },
                {
                    "name": "AEPTCD",
                    "label": "Preferred Term Code",
                    "type": "Num",
                    "length": 8
                },
                {
                    "name": "AEHLT",
                    "label": "High Level Term",
                    "type": "Char",
                    "length": 65
                },
                {
                    "name": "AEHLTCD",
                    "label": "High Level Term Code",
                    "type": "Num",
                    "length": 8
                },
                {
                    "name": "AEHLGT",
                    "label": "High Level Group Term",
                    "type": "Char",
                    "length": 55
                },
                {
                    "name": "AEHLGTCD",
                    "label": "High Level Group Term Code",
                    "type": "Num",
                    "length": 8
                },
                {
                    "name": "AEBODSYS",
                    "label": "Body System or Organ Class",
                    "type": "Char",
                    "length": 52
                },
                {
                    "name": "AEBDSYCD",
                    "label": "Body System or Organ Class Code",
                    "type": "Num",
                    "length": 8
                },
                {
                    "name": "AESOC",
                    "label": "Primary System Organ Class",
                    "type": "Char",
                    "length": 52
                },
                {
                    "name": "AESOCCD",
                    "label": "Primary System Organ Class Code",
                    "type": "Num",
                    "length": 8
                },
                {
                    "name": "AESEV",
                    "label": "Severity/Intensity",
                    "type": "Char",
                    "length": 8
                },
                {
                    "name": "AESER",
                    "label": "Serious Event",
                    "type": "Char",
                    "length": 1
                },
                {
                    "name": "AEACN",
                    "label": "Action Taken with Study Treatment",
                    "type": "Char",
                    "length": 1
                },
                {
                    "name": "AEREL",
                    "label": "Causality",
                    "type": "Char",
                    "length": 1
                },
                {
                    "name": "AEOUT",
                    "label": "Outcome of Adverse Event",
                    "type": "Char",
                    "length": 26
                },
                {
                    "name": "AESMIE",
                    "label": "Other Medically Important Serious Event",
                    "type": "Char",
                    "length": 50
                },
                {
                    "name": "AESTDTC",
                    "label": "Start Date/Time of Adverse Event",
                    "type": "Char",
                    "length": 10
                },
                {
                    "name": "AEENDTC",
                    "label": "End Date/Time of Adverse Event",
                    "type": "Char",
                    "length": 1
                },
                {
                    "name": "AESTDY",
                    "label": "Study Day of Start of Adverse Event",
                    "type": "Num",
                    "length": 8
                }
            ],
            "records": {
                "STUDYID": [
                    "CDISC-TEST",
                    "CDISC-TEST",
                    "CDISC-TEST",
                    "CDISC-TEST",
                    "CDISC-TEST",
                    "CDISC-TEST",
                    "CDISC-TEST",
                    "CDISC-TEST",
                    "CDISC-TEST",
                    "CDISC-TEST",
                    "CDISC-TEST",
                    "CDISC-TEST",
                    "CDISC-TEST",
                    "CDISC-TEST",
                    "CDISC-TEST",
                    "CDISC-TEST",
                    "CDISC-TEST",
                    "CDISC-TEST",
                    "CDISC-TEST",
                    "CDISC-TEST"
                ],
                "DOMAIN": [
                    "AE",
                    "AE",
                    "AE",
                    "AE",
                    "AE",
                    "AE",
                    "AE",
                    "AE",
                    "AE",
                    "AE",
                    "AE",
                    "AE",
                    "AE",
                    "AE",
                    "AE",
                    "AE",
                    "AE",
                    "AE",
                    "AE",
                    "AE"
                ],
                "USUBJID": [
                    "CDISC-TEST-001",
                    "CDISC-TEST-001",
                    "CDISC-TEST-001",
                    "CDISC-TEST-001",
                    "CDISC-TEST-002",
                    "CDISC-TEST-002",
                    "CDISC-TEST-002",
                    "CDISC-TEST-002",
                    "CDISC-TEST-019",
                    "CDISC-TEST-019",
                    "CDISC-TEST-021",
                    "CDISC-TEST-011",
                    "CDISC-TEST-011",
                    "CDISC-TEST-011",
                    "CDISC-TEST-022",
                    "CDISC-TEST-022",
                    "CDISC-TEST-022",
                    "CDISC-TEST-022",
                    "CDISC-TEST-191",
                    "CDISC-TEST-191"
                ],
                "AESEQ": [
                    1,
                    2,
                    4,
                    5,
                    18,
                    19,
                    20,
                    29,
                    296,
                    297,
                    338,
                    1,
                    4,
                    5,
                    18,
                    19,
                    20,
                    29,
                    296,
                    297
                ],
                "AESPID": [
                    "1",
                    "3",
                    "15",
                    "6",
                    "18",
                    "17",
                    "22",
                    "23",
                    "305",
                    "294",
                    "333",
                    "1",
                    "15",
                    "6",
                    "18",
                    "17",
                    "22",
                    "23",
                    "305",
                    "294"
                ],
                "AETERM": [
                    "UPSET STOMACH",
                    "UPSET STOMACH",
                    "BACK PAIN",
                    "DIARRHOEA",
                    "BACK PAIN",
                    "BRONCHITIS",
                    "DIARRHOEA",
                    "HYPOGLYCAEMIA",
                    "DIARRHOEA",
                    "HEADACHE",
                    "HYPERTENSION",
                    "UPSET STOMACH",
                    "BACK PAIN",
                    "DIARRHOEA",
                    "BACK PAIN",
                    "BRONCHITIS",
                    "DIARRHOEA",
                    "HYPOGLYCAEMIA",
                    "DIARRHOEA",
                    "HEADACHE"
                ],
                "AELLT": [
                    "Upset stomach",
                    "Upset stomach",
                    "Back pain",
                    "Diarrhoea",
                    "Back pain",
                    "Bronchitis",
                    "Diarrhoea",
                    "Hypoglycaemia",
                    "Diarrhoea",
                    "Headache",
                    "Hypertension",
                    "Upset stomach",
                    "Back pain",
                    "Diarrhoea",
                    "Back pain",
                    "Bronchitis",
                    "Diarrhoea",
                    "Hypoglycaemia",
                    "Diarrhoea",
                    "Headache"
                ],
                "AELLTCD": [
                    10046318,
                    10046318,
                    10003988,
                    10012735,
                    10003988,
                    10006451,
                    10012735,
                    10020993,
                    10012735,
                    10019211,
                    10020772,
                    10046318,
                    10003988,
                    10012735,
                    10003988,
                    10006451,
                    10012735,
                    10020993,
                    10012735,
                    10019211
                ],
                "AEDECOD": [
                    "Abdominal discomfort",
                    "Abdominal discomfort",
                    "Back pain",
                    "Diarrhoea",
                    "Back pain",
                    "Bronchitis",
                    "Diarrhoea",
                    "Hypoglycaemia",
                    "Diarrhoea",
                    "Headache",
                    "Hypertension",
                    "Abdominal discomfort",
                    "Back pain",
                    "Diarrhoea",
                    "Back pain",
                    "Bronchitis",
                    "Diarrhoea",
                    "Hypoglycaemia",
                    "Diarrhoea",
                    "Headache"
                ],
                "AEPTCD": [
                    10000059,
                    10000059,
                    10003988,
                    10012735,
                    10003988,
                    10006451,
                    10012735,
                    10020993,
                    10012735,
                    10019211,
                    10020772,
                    10000059,
                    10003988,
                    10012735,
                    10003988,
                    10006451,
                    10012735,
                    10020993,
                    10012735,
                    10019211
                ],
                "AEHLT": [
                    "Gastrointestinal signs and symptoms NEC",
                    "Gastrointestinal signs and symptoms NEC",
                    "Musculoskeletal and connective tissue pain and discomfort",
                    "Diarrhoea (excl infective)",
                    "Musculoskeletal and connective tissue pain and discomfort",
                    "Lower respiratory tract and lung infections",
                    "Diarrhoea (excl infective)",
                    "Hypoglycaemic conditions NEC",
                    "Diarrhoea (excl infective)",
                    "Headaches NEC",
                    "Vascular hypertensive disorders NEC",
                    "Gastrointestinal signs and symptoms NEC",
                    "Musculoskeletal and connective tissue pain and discomfort",
                    "Diarrhoea (excl infective)",
                    "Musculoskeletal and connective tissue pain and discomfort",
                    "Lower respiratory tract and lung infections",
                    "Diarrhoea (excl infective)",
                    "Hypoglycaemic conditions NEC",
                    "Diarrhoea (excl infective)",
                    "Headaches NEC"
                ],
                "AEHLTCD": [
                    10027678,
                    10027678,
                    10068757,
                    10012736,
                    10068757,
                    10025101,
                    10012736,
                    10021001,
                    10012736,
                    10019233,
                    10020774,
                    10027678,
                    10068757,
                    10012736,
                    10068757,
                    10025101,
                    10012736,
                    10021001,
                    10012736,
                    10019233
                ],
                "AEHLGT": [
                    "Gastrointestinal signs and symptoms",
                    "Gastrointestinal signs and symptoms",
                    "Musculoskeletal and connective tissue disorders NEC",
                    "Gastrointestinal motility and defaecation conditions",
                    "Musculoskeletal and connective tissue disorders NEC",
                    "Infections - pathogen unspecified",
                    "Gastrointestinal motility and defaecation conditions",
                    "Glucose metabolism disorders (incl diabetes mellitus)",
                    "Gastrointestinal motility and defaecation conditions",
                    "Headaches",
                    "Vascular hypertensive disorders",
                    "Gastrointestinal signs and symptoms",
                    "Musculoskeletal and connective tissue disorders NEC",
                    "Gastrointestinal motility and defaecation conditions",
                    "Musculoskeletal and connective tissue disorders NEC",
                    "Infections - pathogen unspecified",
                    "Gastrointestinal motility and defaecation conditions",
                    "Glucose metabolism disorders (incl diabetes mellitus)",
                    "Gastrointestinal motility and defaecation conditions",
                    "Headaches"
                ],
                "AEHLGTCD": [
                    10018012,
                    10018012,
                    10028393,
                    10017977,
                    10028393,
                    10021879,
                    10017977,
                    10018424,
                    10017977,
                    10019231,
                    10057166,
                    10018012,
                    10028393,
                    10017977,
                    10028393,
                    10021879,
                    10017977,
                    10018424,
                    10017977,
                    10019231
                ],
                "AEBODSYS": [
                    "Gastrointestinal disorders",
                    "Gastrointestinal disorders",
                    "Musculoskeletal and connective tissue disorders",
                    "Gastrointestinal disorders",
                    "Musculoskeletal and connective tissue disorders",
                    "Infections and infestations",
                    "Gastrointestinal disorders",
                    "Metabolism and nutrition disorders",
                    "Gastrointestinal disorders",
                    "Nervous system disorders",
                    "Vascular disorders",
                    "Gastrointestinal disorders",
                    "Musculoskeletal and connective tissue disorders",
                    "Gastrointestinal disorders",
                    "Musculoskeletal and connective tissue disorders",
                    "Infections and infestations",
                    "Gastrointestinal disorders",
                    "Metabolism and nutrition disorders",
                    "Gastrointestinal disorders",
                    "Nervous system disorders"
                ],
                "AEBDSYCD": [
                    10017947,
                    10017947,
                    10028395,
                    10017947,
                    10028395,
                    10021881,
                    10017947,
                    10027433,
                    10017947,
                    10029205,
                    10047065,
                    10017947,
                    10028395,
                    10017947,
                    10028395,
                    10021881,
                    10017947,
                    10027433,
                    10017947,
                    10029205
                ],
                "AESOC": [
                    "Gastrointestinal disorders",
                    "Gastrointestinal disorders",
                    "Musculoskeletal and connective tissue disorders",
                    "Gastrointestinal disorders",
                    "Musculoskeletal and connective tissue disorders",
                    "Infections and infestations",
                    "Gastrointestinal disorders",
                    "Metabolism and nutrition disorders",
                    "Gastrointestinal disorders",
                    "Nervous system disorders",
                    "Vascular disorders",
                    "Gastrointestinal disorders",
                    "Musculoskeletal and connective tissue disorders",
                    "Gastrointestinal disorders",
                    "Musculoskeletal and connective tissue disorders",
                    "Infections and infestations",
                    "Gastrointestinal disorders",
                    "Metabolism and nutrition disorders",
                    "Gastrointestinal disorders",
                    "Nervous system disorders"
                ],
                "AESOCCD": [
                    10017947,
                    10017947,
                    10028395,
                    10017947,
                    10028395,
                    10021881,
                    10017947,
                    10027433,
                    10017947,
                    10029205,
                    10047065,
                    10017947,
                    10028395,
                    10017947,
                    10028395,
                    10021881,
                    10017947,
                    10027433,
                    10017947,
                    10029205
                ],
                "AESEV": [
                    "MILD",
                    "MILD",
                    "MILD",
                    "MILD",
                    "MILD",
                    "MILD",
                    "MILD",
                    "MILD",
                    "MILD",
                    "MILD",
                    "MILD",
                    "MILD",
                    "MILD",
                    "MILD",
                    "MILD",
                    "MILD",
                    "MILD",
                    "MILD",
                    "MILD",
                    "MILD"
                ],
                "AESER": [
                    "Y",
                    "N",
                    "Y",
                    "Y",
                    "Y",
                    "Y",
                    "Y",
                    "Y",
                    "Y",
                    "Y",
                    "N",
                    "N",
                    "N",
                    "Y",
                    "N",
                    "N",
                    "N",
                    "N",
                    "N",
                    "N"
                ],
                "AEACN": [
                    "",
                    "",
                    "",
                    "",
                    "",
                    "",
                    "",
                    "",
                    "",
                    "",
                    "",
                    "",
                    "",
                    "",
                    "",
                    "",
                    "",
                    "",
                    "",
                    ""
                ],
                "AEREL": [
                    "",
                    "",
                    "",
                    "",
                    "",
                    "",
                    "",
                    "",
                    "",
                    "",
                    "",
                    "",
                    "",
                    "",
                    "",
                    "",
                    "",
                    "",
                    "",
                    ""
                ],
                "AEOUT": [
                    "RECOVERED/RESOLVED",
                    "RECOVERED/RESOLVED",
                    "RECOVERED/RESOLVED",
                    "RECOVERED/RESOLVED",
                    "RECOVERED/RESOLVED",
                    "RECOVERED/RESOLVED",
                    "RECOVERED/RESOLVED",
                    "RECOVERED/RESOLVED",
                    "RECOVERED/RESOLVED",
                    "RECOVERED/RESOLVED",
                    "RECOVERED/RESOLVED",
                    "RECOVERED/RESOLVED",
                    "RECOVERED/RESOLVED",
                    "RECOVERED/RESOLVED",
                    "RECOVERED/RESOLVED",
                    "RECOVERED/RESOLVED",
                    "RECOVERED/RESOLVED",
                    "RECOVERED/RESOLVED",
                    "RECOVERED/RESOLVED",
                    "RECOVERED/RESOLVED"
                ],
                "AESMIE": [
                    "Y",
                    "N",
                    "N",
                    "N",
                    "N",
                    "N",
                    "N",
                    "Y",
                    "N",
                    "N",
                    "",
                    "",
                    "N",
                    "Y",
                    "N",
                    "N",
                    "N",
                    "",
                    "N",
                    "N"
                ],
                "AESTDTC": [
                    "2019-05-21",
                    "2019-06-15",
                    "2019-04-29",
                    "2019-08-11",
                    "2019-02-28",
                    "2019-02-19",
                    "2019-04-22",
                    "2019-04-05",
                    "2019-05-03",
                    "2019-06-24",
                    "2019-03-19",
                    "2019-05-21",
                    "2019-04-29",
                    "2019-08-11",
                    "2019-02-28",
                    "2019-02-19",
                    "2019-04-22",
                    "2019-04-05",
                    "2019-05-03",
                    "2019-06-24"
                ],
                "AEENDTC": [
                    "",
                    "",
                    "",
                    "",
                    "",
                    "",
                    "",
                    "",
                    "",
                    "",
                    "",
                    "",
                    "",
                    "",
                    "",
                    "",
                    "",
                    "",
                    "",
                    ""
                ],
                "AESTDY": [
                    70,
                    95,
                    48,
                    152,
                    29,
                    20,
                    82,
                    65,
                    57,
                    109,
                    61,
                    70,
                    48,
                    152,
                    29,
                    20,
                    82,
                    65,
                    57,
                    109
                ]
            }
        },
        {
            "filename": "suppae.xpt",
            "label": "Supplemental Qualifiers for AE",
            "domain": "SUPPAE",
            "variables": [
                {
                    "name": "STUDYID",
                    "label": "Study Identifier",
                    "type": "Char",
                    "length": 10
                },
                {
                    "name": "RDOMAIN",
                    "label": "Related Domain Abbreviation",
                    "type": "Char",
                    "length": 4
                },
                {
                    "name": "USUBJID",
                    "label": "Unique Subject Identifier",
                    "type": "Char",
                    "length": 14
                },
                {
                    "name": "IDVAR",
                    "label": "Study Identifier",
                    "type": "Char",
                    "length": 10
                },
                {
                    "name": "IDVARVAL",
                    "label": "Identifying Variable Value",
                    "type": "Char",
                    "length": 30
                },
                {
                    "name": "QNAM",
                    "label": "Qualifier Variable Name",
                    "type": "Char",
                    "length": 8
                },
                {
                    "name": "QLABEL",
                    "label": "Qualifier Variable Label",
                    "type": "Char",
                    "length": 40
                },
                {
                    "name": "QVAL",
                    "label": "Data Value",
                    "type": "Char",
                    "length": 200
                },
                {
                    "name": "QORIG",
                    "label": "Origin",
                    "type": "Char",
                    "length": 25
                }
            ],
            "records": {
                "STUDYID": [
                    "CDISC-TEST",
                    "CDISC-TEST",
                    "CDISC-TEST",
                    "CDISC-TEST",
                    "CDISC-TEST",
                    "CDISC-TEST",
                    "CDISC-TEST",
                    "CDISC-TEST",
                    "CDISC-TEST",
                    "CDISC-TEST",
                    "CDISC-TEST",
                    "CDISC-TEST",
                    "CDISC-TEST",
                    "CDISC-TEST",
                    "CDISC-TEST",
                    "CDISC-TEST",
                    "CDISC-TEST",
                    "CDISC-TEST",
                    "CDISC-TEST",
                    "CDISC-TEST",
                    "CDISC-TEST",
                    "CDISC-TEST",
                    "CDISC-TEST",
                    "CDISC-TEST",
                    "CDISC-TEST",
                    "CDISC-TEST",
                    "CDISC-TEST",
                    "CDISC-TEST",
                    "CDISC-TEST",
                    "CDISC-TEST",
                    "CDISC-TEST",
                    "CDISC-TEST",
                    "CDISC-TEST",
                    "CDISC-TEST",
                    "CDISC-TEST",
                    "CDISC-TEST",
                    "CDISC-TEST",
                    "CDISC-TEST",
                    "CDISC-TEST",
                    "CDISC-TEST",
                    "CDISC-TEST",
                    "CDISC-TEST",
                    "CDISC-TEST",
                    "CDISC-TEST",
                    "CDISC-TEST",
                    "CDISC-TEST",
                    "CDISC-TEST",
                    "CDISC-TEST",
                    "CDISC-TEST",
                    "CDISC-TEST",
                    "CDISC-TEST",
                    "CDISC-TEST",
                    "CDISC-TEST",
                    "CDISC-TEST",
                    "CDISC-TEST",
                    "CDISC-TEST",
                    "CDISC-TEST",
                    "CDISC-TEST",
                    "CDISC-TEST",
                    "CDISC-TEST",
                    "CDISC-TEST",
                    "CDISC-TEST",
                    "CDISC-TEST",
                    "CDISC-TEST",
                    "CDISC-TEST",
                    "CDISC-TEST",
                    "CDISC-TEST",
                    "CDISC-TEST",
                    "CDISC-TEST",
                    "CDISC-TEST",
                    "CDISC-TEST",
                    "CDISC-TEST",
                    "CDISC-TEST",
                    "CDISC-TEST",
                    "CDISC-TEST",
                    "CDISC-TEST",
                    "CDISC-TEST",
                    "CDISC-TEST",
                    "CDISC-TEST",
                    "CDISC-TEST",
                    "CDISC-TEST",
                    "CDISC-TEST",
                    "CDISC-TEST",
                    "CDISC-TEST",
                    "CDISC-TEST",
                    "CDISC-TEST",
                    "CDISC-TEST",
                    "CDISC-TEST",
                    "CDISC-TEST",
                    "CDISC-TEST",
                    "CDISC-TEST",
                    "CDISC-TEST",
                    "CDISC-TEST",
                    "CDISC-TEST",
                    "CDISC-TEST",
                    "CDISC-TEST",
                    "CDISC-TEST",
                    "CDISC-TEST",
                    "CDISC-TEST",
                    "CDISC-TEST",
                    "CDISC-TEST",
                    "CDISC-TEST",
                    "CDISC-TEST",
                    "CDISC-TEST",
                    "CDISC-TEST",
                    "CDISC-TEST",
                    "CDISC-TEST",
                    "CDISC-TEST",
                    "CDISC-TEST",
                    "CDISC-TEST",
                    "CDISC-TEST"
                ],
                "RDOMAIN": [
                    "AE",
                    "AE",
                    "AE",
                    "AE",
                    "AE",
                    "AE",
                    "AE",
                    "AE",
                    "AE",
                    "AE",
                    "AE",
                    "AE",
                    "AE",
                    "AE",
                    "AE",
                    "AE",
                    "AE",
                    "AE",
                    "AE",
                    "AE",
                    "AE",
                    "AE",
                    "AE",
                    "AE",
                    "AE",
                    "AE",
                    "AE",
                    "AE",
                    "AE",
                    "AE",
                    "AE",
                    "AE",
                    "AE",
                    "AE",
                    "AE",
                    "AE",
                    "AE",
                    "AE",
                    "AE",
                    "AE",
                    "AE",
                    "AE",
                    "AE",
                    "AE",
                    "AE",
                    "AE",
                    "AE",
                    "AE",
                    "AE",
                    "AE",
                    "AE",
                    "AE",
                    "AE",
                    "AE",
                    "AE",
                    "AE",
                    "AE",
                    "AE",
                    "AE",
                    "AE",
                    "AE",
                    "AE",
                    "AE",
                    "AE",
                    "AE",
                    "AE",
                    "AE",
                    "AE",
                    "AE",
                    "AE",
                    "AE",
                    "AE",
                    "AE",
                    "AE",
                    "AE",
                    "AE",
                    "AE",
                    "AE",
                    "AE",
                    "AE",
                    "AE",
                    "AE",
                    "AE",
                    "AE",
                    "AE",
                    "AE",
                    "AE",
                    "AE",
                    "AE",
                    "AE",
                    "AE",
                    "AE",
                    "AE",
                    "AE",
                    "AE",
                    "AE",
                    "AE",
                    "AE",
                    "AE",
                    "AE",
                    "AE",
                    "AE",
                    "AE",
                    "AE",
                    "AE",
                    "AE",
                    "AE",
                    "AE",
                    "AE",
                    "AE",
                    "AE"
                ],
                "USUBJID": [
                    "CDISC-TEST-001",
                    "CDISC-TEST-001",
                    "CDISC-TEST-001",
                    "CDISC-TEST-001",
                    "CDISC-TEST-001",
                    "CDISC-TEST-001",
                    "CDISC-TEST-001",
                    "CDISC-TEST-001",
                    "CDISC-TEST-001",
                    "CDISC-TEST-001",
                    "CDISC-TEST-001",
                    "CDISC-TEST-001",
                    "CDISC-TEST-001",
                    "CDISC-TEST-001",
                    "CDISC-TEST-001",
                    "CDISC-TEST-001",
                    "CDISC-TEST-001",
                    "CDISC-TEST-001",
                    "CDISC-TEST-001",
                    "CDISC-TEST-001",
                    "CDISC-TEST-001",
                    "CDISC-TEST-001",
                    "CDISC-TEST-001",
                    "CDISC-TEST-001",
                    "CDISC-TEST-001",
                    "CDISC-TEST-001",
                    "CDISC-TEST-001",
                    "CDISC-TEST-002",
                    "CDISC-TEST-002",
                    "CDISC-TEST-002",
                    "CDISC-TEST-002",
                    "CDISC-TEST-002",
                    "CDISC-TEST-002",
                    "CDISC-TEST-002",
                    "CDISC-TEST-002",
                    "CDISC-TEST-002",
                    "CDISC-TEST-002",
                    "CDISC-TEST-002",
                    "CDISC-TEST-002",
                    "CDISC-TEST-002",
                    "CDISC-TEST-002",
                    "CDISC-TEST-002",
                    "CDISC-TEST-002",
                    "CDISC-TEST-002",
                    "CDISC-TEST-002",
                    "CDISC-TEST-002",
                    "CDISC-TEST-002",
                    "CDISC-TEST-002",
                    "CDISC-TEST-019",
                    "CDISC-TEST-019",
                    "CDISC-TEST-019",
                    "CDISC-TEST-019",
                    "CDISC-TEST-019",
                    "CDISC-TEST-019",
                    "CDISC-TEST-019",
                    "CDISC-TEST-019",
                    "CDISC-TEST-019",
                    "CDISC-TEST-019",
                    "CDISC-TEST-019",
                    "CDISC-TEST-021",
                    "CDISC-TEST-021",
                    "CDISC-TEST-021",
                    "CDISC-TEST-021",
                    "CDISC-TEST-021",
                    "CDISC-TEST-011",
                    "CDISC-TEST-011",
                    "CDISC-TEST-011",
                    "CDISC-TEST-011",
                    "CDISC-TEST-011",
                    "CDISC-TEST-011",
                    "CDISC-TEST-011",
                    "CDISC-TEST-011",
                    "CDISC-TEST-011",
                    "CDISC-TEST-011",
                    "CDISC-TEST-011",
                    "CDISC-TEST-011",
                    "CDISC-TEST-011",
                    "CDISC-TEST-011",
                    "CDISC-TEST-011",
                    "CDISC-TEST-011",
                    "CDISC-TEST-022",
                    "CDISC-TEST-022",
                    "CDISC-TEST-022",
                    "CDISC-TEST-022",
                    "CDISC-TEST-022",
                    "CDISC-TEST-022",
                    "CDISC-TEST-022",
                    "CDISC-TEST-022",
                    "CDISC-TEST-022",
                    "CDISC-TEST-022",
                    "CDISC-TEST-022",
                    "CDISC-TEST-022",
                    "CDISC-TEST-022",
                    "CDISC-TEST-022",
                    "CDISC-TEST-022",
                    "CDISC-TEST-022",
                    "CDISC-TEST-022",
                    "CDISC-TEST-022",
                    "CDISC-TEST-022",
                    "CDISC-TEST-022",
                    "CDISC-TEST-191",
                    "CDISC-TEST-191",
                    "CDISC-TEST-191",
                    "CDISC-TEST-191",
                    "CDISC-TEST-191",
                    "CDISC-TEST-191",
                    "CDISC-TEST-191",
                    "CDISC-TEST-191",
                    "CDISC-TEST-191",
                    "CDISC-TEST-191",
                    "CDISC-TEST-191"
                ],
                "IDVAR": [
                    "AESEQ",
                    "AESEQ",
                    "AESEQ",
                    "AESEQ",
                    "AESEQ",
                    "AESEQ",
                    "AESEQ",
                    "AESEQ",
                    "AESEQ",
                    "AESEQ",
                    "AESEQ",
                    "AESEQ",
                    "AESEQ",
                    "AESEQ",
                    "AESEQ",
                    "AESEQ",
                    "AESEQ",
                    "AESEQ",
                    "AESEQ",
                    "AESEQ",
                    "AESEQ",
                    "AESEQ",
                    "AESEQ",
                    "AESEQ",
                    "AESEQ",
                    "AESEQ",
                    "AESEQ",
                    "AESEQ",
                    "AESEQ",
                    "AESEQ",
                    "AESEQ",
                    "AESEQ",
                    "AESEQ",
                    "AESEQ",
                    "AESEQ",
                    "AESEQ",
                    "AESEQ",
                    "AESEQ",
                    "AESEQ",
                    "AESEQ",
                    "AESEQ",
                    "AESEQ",
                    "AESEQ",
                    "AESEQ",
                    "AESEQ",
                    "AESEQ",
                    "AESEQ",
                    "AESEQ",
                    "AESEQ",
                    "AESEQ",
                    "AESEQ",
                    "AESEQ",
                    "AESEQ",
                    "AESEQ",
                    "AESEQ",
                    "AESEQ",
                    "AESEQ",
                    "AESEQ",
                    "AESEQ",
                    "AESEQ",
                    "AESEQ",
                    "AESEQ",
                    "AESEQ",
                    "AESEQ",
                    "AESEQ",
                    "AESEQ",
                    "AESEQ",
                    "AESEQ",
                    "AESEQ",
                    "AESEQ",
                    "AESEQ",
                    "AESEQ",
                    "AESEQ",
                    "AESEQ",
                    "AESEQ",
                    "AESEQ",
                    "AESEQ",
                    "AESEQ",
                    "AESEQ",
                    "AESEQ",
                    "AESEQ",
                    "AESEQ",
                    "AESEQ",
                    "AESEQ",
                    "AESEQ",
                    "AESEQ",
                    "AESEQ",
                    "AESEQ",
                    "AESEQ",
                    "AESEQ",
                    "AESEQ",
                    "AESEQ",
                    "AESEQ",
                    "AESEQ",
                    "AESEQ",
                    "AESEQ",
                    "AESEQ",
                    "AESEQ",
                    "AESEQ",
                    "AESEQ",
                    "AESEQ",
                    "AESEQ",
                    "AESEQ",
                    "AESEQ",
                    "AESEQ",
                    "AESEQ",
                    "AESEQ",
                    "AESEQ",
                    "AESEQ",
                    "AESEQ",
                    "AESEQ"
                ],
                "IDVARVAL": [
                    "1",
                    "1",
                    "1",
                    "1",
                    "1",
                    "1",
                    "2",
                    "2",
                    "2",
                    "2",
                    "2",
                    "2",
                    "3",
                    "3",
                    "3",
                    "3",
                    "3",
                    "4",
                    "4",
                    "4",
                    "4",
                    "4",
                    "5",
                    "5",
                    "5",
                    "5",
                    "5",
                    "18",
                    "18",
                    "18",
                    "18",
                    "18",
                    "19",
                    "19",
                    "19",
                    "19",
                    "19",
                    "20",
                    "20",
                    "20",
                    "20",
                    "20",
                    "29",
                    "29",
                    "29",
                    "29",
                    "29",
                    "29",
                    "296",
                    "296",
                    "296",
                    "296",
                    "296",
                    "297",
                    "297",
                    "297",
                    "297",
                    "297",
                    "297",
                    "338",
                    "338",
                    "338",
                    "338",
                    "338",
                    "1",
                    "1",
                    "1",
                    "1",
                    "1",
                    "4",
                    "4",
                    "4",
                    "4",
                    "4",
                    "5",
                    "5",
                    "5",
                    "5",
                    "5",
                    "5",
                    "18",
                    "18",
                    "18",
                    "18",
                    "18",
                    "19",
                    "19",
                    "19",
                    "19",
                    "19",
                    "20",
                    "20",
                    "20",
                    "20",
                    "20",
                    "29",
                    "29",
                    "29",
                    "29",
                    "29",
                    "296",
                    "296",
                    "296",
                    "296",
                    "296",
                    "297",
                    "297",
                    "297",
                    "297",
                    "297",
                    "297"
                ],
                "QNAM": [
                    "AEDICTV",
                    "AEGPE",
                    "AERELPR",
                    "AESIIN",
                    "AETRTEM",
                    "AESOSP",
                    "AEDICTV",
                    "AEGPE",
                    "AERELPR",
                    "AESIIN",
                    "AESTABLE",
                    "AETRTEM",
                    "AEDICTV",
                    "AEGPE",
                    "AERELPR",
                    "AESIIN",
                    "AETRTEM",
                    "AEDICTV",
                    "AEGPE",
                    "AERELPR",
                    "AESIIN",
                    "AETRTEM",
                    "AEDICTV",
                    "AEGPE",
                    "AERELPR",
                    "AESIIN",
                    "AETRTEM",
                    "AEDICTV",
                    "AEGPE",
                    "AERELPR",
                    "AESIIN",
                    "AETRTEM",
                    "AEDICTV",
                    "AEGPE",
                    "AERELPR",
                    "AESIIN",
                    "AETRTEM",
                    "AEDICTV",
                    "AEGPE",
                    "AERELPR",
                    "AESIIN",
                    "AETRTEM",
                    "AEDICTV",
                    "AEGPE",
                    "AERELPR",
                    "AESIIN",
                    "AETRTEM",
                    "AESOSP",
                    "AEDICTV",
                    "AEGPE",
                    "AERELPR",
                    "AESIIN",
                    "AETRTEM",
                    "AEDICTV",
                    "AEGPE",
                    "AERELPR",
                    "AESIIN",
                    "AESTABLE",
                    "AETRTEM",
                    "AEDICTV",
                    "AEGPE",
                    "AERELPR",
                    "AESIIN",
                    "AETRTEM",
                    "AEDICTV",
                    "AEGPE",
                    "AERELPR",
                    "AESIIN",
                    "AETRTEM",
                    "AEDICTV",
                    "AEGPE",
                    "AERELPR",
                    "AESIIN",
                    "AETRTEM",
                    "AEDICTV",
                    "AEGPE",
                    "AERELPR",
                    "AESIIN",
                    "AETRTEM",
                    "AESOSP",
                    "AEDICTV",
                    "AEGPE",
                    "AERELPR",
                    "AESIIN",
                    "AETRTEM",
                    "AEDICTV",
                    "AEGPE",
                    "AERELPR",
                    "AESIIN",
                    "AETRTEM",
                    "AEDICTV",
                    "AEGPE",
                    "AERELPR",
                    "AESIIN",
                    "AETRTEM",
                    "AEDICTV",
                    "AEGPE",
                    "AERELPR",
                    "AESIIN",
                    "AETRTEM",
                    "AEDICTV",
                    "AEGPE",
                    "AERELPR",
                    "AESIIN",
                    "AETRTEM",
                    "AEDICTV",
                    "AEGPE",
                    "AERELPR",
                    "AESIIN",
                    "AESTABLE",
                    "AETRTEM"
                ],
                "QLABEL": [
                    "Dictionary Version",
                    "Endpoint notified to GPE",
                    "Relationship to Study Procedure",
                    "Special Interest",
                    "Treatment Emergent Flag",
                    "Other Medically Important SAE ",
                    "Dictionary Version",
                    "Endpoint notified to GPE",
                    "Relationship to Study Procedure",
                    "Special Interest",
                    "Stabilized",
                    "Treatment Emergent Flag",
                    "Dictionary Version",
                    "Endpoint notified to GPE",
                    "Relationship to Study Procedure",
                    "Special Interest",
                    "Treatment Emergent Flag",
                    "Dictionary Version",
                    "Endpoint notified to GPE",
                    "Relationship to Study Procedure",
                    "Special Interest",
                    "Treatment Emergent Flag",
                    "Dictionary Version",
                    "Endpoint notified to GPE",
                    "Relationship to Study Procedure",
                    "Special Interest",
                    "Treatment Emergent Flag",
                    "Dictionary Version",
                    "Endpoint notified to GPE",
                    "Relationship to Study Procedure",
                    "Special Interest",
                    "Treatment Emergent Flag",
                    "Dictionary Version",
                    "Endpoint notified to GPE",
                    "Relationship to Study Procedure",
                    "Special Interest",
                    "Treatment Emergent Flag",
                    "Dictionary Version",
                    "Endpoint notified to GPE",
                    "Relationship to Study Procedure",
                    "Special Interest",
                    "Treatment Emergent Flag",
                    "Dictionary Version",
                    "Endpoint notified to GPE",
                    "Relationship to Study Procedure",
                    "Special Interest",
                    "Treatment Emergent Flag",
                    "Other Medically Important SAE ",
                    "Dictionary Version",
                    "Endpoint notified to GPE",
                    "Relationship to Study Procedure",
                    "Special Interest",
                    "Treatment Emergent Flag",
                    "Dictionary Version",
                    "Endpoint notified to GPE",
                    "Relationship to Study Procedure",
                    "Special Interest",
                    "Stabilized",
                    "Treatment Emergent Flag",
                    "Dictionary Version",
                    "Endpoint notified to GPE",
                    "Relationship to Study Procedure",
                    "Special Interest",
                    "Treatment Emergent Flag",
                    "Dictionary Version",
                    "Endpoint notified to GPE",
                    "Relationship to Study Procedure",
                    "Special Interest",
                    "Treatment Emergent Flag",
                    "Dictionary Version",
                    "Endpoint notified to GPE",
                    "Relationship to Study Procedure",
                    "Special Interest",
                    "Treatment Emergent Flag",
                    "Dictionary Version",
                    "Endpoint notified to GPE",
                    "Relationship to Study Procedure",
                    "Special Interest",
                    "Treatment Emergent Flag",
                    "Other Medically Important SAE ",
                    "Dictionary Version",
                    "Endpoint notified to GPE",
                    "Relationship to Study Procedure",
                    "Special Interest",
                    "Treatment Emergent Flag",
                    "Dictionary Version",
                    "Endpoint notified to GPE",
                    "Relationship to Study Procedure",
                    "Special Interest",
                    "Treatment Emergent Flag",
                    "Dictionary Version",
                    "Endpoint notified to GPE",
                    "Relationship to Study Procedure",
                    "Special Interest",
                    "Treatment Emergent Flag",
                    "Dictionary Version",
                    "Endpoint notified to GPE",
                    "Relationship to Study Procedure",
                    "Special Interest",
                    "Treatment Emergent Flag",
                    "Dictionary Version",
                    "Endpoint notified to GPE",
                    "Relationship to Study Procedure",
                    "Special Interest",
                    "Treatment Emergent Flag",
                    "Dictionary Version",
                    "Endpoint notified to GPE",
                    "Relationship to Study Procedure",
                    "Special Interest",
                    "Stabilized",
                    "Treatment Emergent Flag"
                ],
                "QVAL": [
                    "MEDDRA 23.1",
                    "0",
                    "NOT RELATED",
                    "N",
                    "TREATMENT EMERGENT",
                    "SPONTANEOUS ABORTION ",
                    "MEDDRA 23.1",
                    "0",
                    "NOT RELATED",
                    "N",
                    "Y",
                    "TREATMENT EMERGENT",
                    "MEDDRA 23.1",
                    "0",
                    "NOT RELATED",
                    "N",
                    "TREATMENT EMERGENT",
                    "MEDDRA 23.1",
                    "0",
                    "NOT RELATED",
                    "N",
                    "TREATMENT EMERGENT",
                    "MEDDRA 23.1",
                    "0",
                    "NOT RELATED",
                    "N",
                    "TREATMENT EMERGENT",
                    "MEDDRA 23.1",
                    "0",
                    "NOT RELATED",
                    "N",
                    "TREATMENT EMERGENT",
                    "MEDDRA 23.1",
                    "0",
                    "NOT RELATED",
                    "N",
                    "TREATMENT EMERGENT",
                    "MEDDRA 23.1",
                    "0",
                    "NOT RELATED",
                    "N",
                    "TREATMENT EMERGENT",
                    "MEDDRA 23.1",
                    "0",
                    "NOT RELATED",
                    "N",
                    "TREATMENT EMERGENT",
                    "HIGH RISK FOR ADDITIONAL THROMBOSIS",
                    "MEDDRA 23.1",
                    "0",
                    "NOT RELATED",
                    "N",
                    "TREATMENT EMERGENT",
                    "MEDDRA 23.1",
                    "0",
                    "NOT RELATED",
                    "N",
                    "Y",
                    "TREATMENT EMERGENT",
                    "MEDDRA 23.1",
                    "0",
                    "NOT RELATED",
                    "N",
                    "TREATMENT EMERGENT",
                    "MEDDRA 23.1",
                    "0",
                    "NOT RELATED",
                    "N",
                    "TREATMENT EMERGENT",
                    "MEDDRA 23.1",
                    "0",
                    "NOT RELATED",
                    "N",
                    "TREATMENT EMERGENT",
                    "MEDDRA 23.1",
                    "0",
                    "NOT RELATED",
                    "N",
                    "TREATMENT EMERGENT",
                    "HIGH RISK FOR ADDITIONAL THROMBOSIS",
                    "MEDDRA 23.1",
                    "0",
                    "NOT RELATED",
                    "N",
                    "TREATMENT EMERGENT",
                    "MEDDRA 23.1",
                    "0",
                    "NOT RELATED",
                    "N",
                    "TREATMENT EMERGENT",
                    "MEDDRA 23.1",
                    "0",
                    "NOT RELATED",
                    "N",
                    "TREATMENT EMERGENT",
                    "MEDDRA 23.1",
                    "0",
                    "NOT RELATED",
                    "N",
                    "TREATMENT EMERGENT",
                    "MEDDRA 23.1",
                    "0",
                    "NOT RELATED",
                    "N",
                    "TREATMENT EMERGENT",
                    "MEDDRA 23.1",
                    "0",
                    "NOT RELATED",
                    "N",
                    "Y",
                    "TREATMENT EMERGENT"
                ],
                "QORIG": [
                    "Assigned",
                    "CRF",
                    "CRF",
                    "CRF",
                    "Derived",
                    "CRF",
                    "Assigned",
                    "CRF",
                    "CRF",
                    "CRF",
                    "CRF",
                    "Derived",
                    "Assigned",
                    "CRF",
                    "CRF",
                    "CRF",
                    "Derived",
                    "Assigned",
                    "CRF",
                    "CRF",
                    "CRF",
                    "Derived",
                    "Assigned",
                    "CRF",
                    "CRF",
                    "CRF",
                    "Derived",
                    "Assigned",
                    "CRF",
                    "CRF",
                    "CRF",
                    "Derived",
                    "Assigned",
                    "CRF",
                    "CRF",
                    "CRF",
                    "Derived",
                    "Assigned",
                    "CRF",
                    "CRF",
                    "CRF",
                    "Derived",
                    "Assigned",
                    "CRF",
                    "CRF",
                    "CRF",
                    "Derived",
                    "CRF",
                    "Assigned",
                    "CRF",
                    "CRF",
                    "CRF",
                    "Derived",
                    "Assigned",
                    "CRF",
                    "CRF",
                    "CRF",
                    "CRF",
                    "Derived",
                    "Assigned",
                    "CRF",
                    "CRF",
                    "CRF",
                    "Derived",
                    "Assigned",
                    "CRF",
                    "CRF",
                    "CRF",
                    "Derived",
                    "Assigned",
                    "CRF",
                    "CRF",
                    "CRF",
                    "Derived",
                    "Assigned",
                    "CRF",
                    "CRF",
                    "CRF",
                    "Derived",
                    "CRF",
                    "Assigned",
                    "CRF",
                    "CRF",
                    "CRF",
                    "Derived",
                    "Assigned",
                    "CRF",
                    "CRF",
                    "CRF",
                    "Derived",
                    "Assigned",
                    "CRF",
                    "CRF",
                    "CRF",
                    "Derived",
                    "Assigned",
                    "CRF",
                    "CRF",
                    "CRF",
                    "Derived",
                    "Assigned",
                    "CRF",
                    "CRF",
                    "CRF",
                    "Derived",
                    "Assigned",
                    "CRF",
                    "CRF",
                    "CRF",
                    "CRF",
                    "Derived"
                ]
            }
        }
    ],
    "standard": {
        "product": "sdtmig",
        "version": "3-3"
    },
    "codelists": []
}