STUDYID,DOMAIN,USUBJID,LBSEQ,LBTESTCD,LBTEST,LBCAT,LBSCAT,LBORRES,LBORRESU,LBORNRLO,LBORNRHI,LBSTRESC,LBSTRESN,LBSTRESU,LBSTNRLO,LBSTNRHI,LBNRIND,LBSTAT,LBSPEC,LBMETHOD,LBLOBXFL,VISITNUM,VISIT,EPOCH,LBDTC,LBDY
CDISCPILOT01,LB,CDISC001,1,ALB,Albumin,CHEMISTRY,ALBCAT1,3.9,g/dL,3.5,4.6,39,39,g/L,35,46,NORMAL,,SERUM,METHOD-A,,1,SCREENING 1,SCREENING,2012-11-23T11:20,-7
CDISCPILOT01,LB,CDISC001,5,BASO,Basophils,HEMATOLOGY,,0.03,10^9/L,0,0.2,0.03,0.03,10^9/L,0,0.2,NORMAL,,,BASOMETHOD,Y,1,SCREENING 1,SCREENING,2012-11-23T11:20,-7
CDISCPILOT01,LB,CDISC001,38,ALB,Albumin,CHEMISTRY,ALBCAT2,3.6,g/dL,3.5,4.6,36,36,g/L,35,46,NORMAL,,SERUM,METHOD-A,Y,4,WEEK 2,TREATMENT,2012-12-13T14:05,14
CDISCPILOT01,LB,CDISC001,42,BASO,Basophils,HEMATOLOGY,,0.04,10^9/L,0,0.2,0.04,0.03999999999999999,10^9/L,0,0.2,NORMAL,,TEST,BASOMETHOD,Y,4,WEEK 2,TREATMENT,2012-12-13T14:05,14
CDISCPILOT01,LB,CDISC001,73,ALB,Albumin,CHEMISTRY,ALBCAT1,3.5,g/dL,3.5,4.6,35,35,mg/L,35,46,NORMAL,,SERUM,METHOD-B,Y,5,WEEK 4,TREATMENT,2012-12-26T08:44,27
CDISCPILOT01,LB,CDISC001,77,BASO,Basophils,HEMATOLOGY,,0.05,10^9/L,0,0.2,0.05,0.05,10^6/L,0,0.2,NORMAL,,,BASOMETHOD,,5,WEEK 4,TREATMENT,2012-12-26T08:44,27
CDISCPILOT01,LB,CDISC001,41,ALB,Albumin,CHEMISTRY,ALBCAT2,3.6,g/dL,3.5,4.6,36,36,g/L,35,46,NORMAL,,SERUM,METHOD-A,,4,WEEK 2,TREATMENT,2012-12-13T14:05,14
CDISCPILOT01,LB,CDISC001,103,ALB,Albumin,CHEMISTRY,ALBCAT2,3.7,g/dL,3.5,4.6,37,37,g/dL,35,46,NORMAL,,SERUM,METHOD-A,,5.01,WEEK 4: UNSCHEDULED 01,TREATMENT,2012-12-28T09:27,29
CDISCPILOT01,LB,CDISC001,118,ALB,Albumin,CHEMISTRY,ALBCAT1,3.7,g/dL,3.5,4.6,37,37,g/dL,35,46,NORMAL,,SERUM,METHOD-A,Y,7,WEEK 6,TREATMENT,2013-01-10T15:20,42
CDISCPILOT01,LB,CDISC001,122,BASO,Basophils,HEMATOLOGY,,0.03,10^9/L,0,0.2,0.03,0.03,10^9/L,0,0.2,NORMAL,,,BASOMETHOD,,7,WEEK 6,TREATMENT,2013-01-10T15:20,42
CDISCPILOT01,LB,CDISC001,152,BASO,Basophils,HEMATOLOGY,,0.04,10^9/L,0,0.2,0.04,0.03999999999999999,10^9/L,0,0.2,NORMAL,,,BASOMETHOD,,8,WEEK 8,TREATMENT,2013-01-23T12:13,55
CDISCPILOT01,LB,CDISC001,1,ALB,Albumin,CHEMISTRY,ALBCAT1,4.2,g/dL,3.5,4.6,,42,g/L,35,46,NORMAL,,SERUM,METHOD-B,,1,SCREENING 1,SCREENING,2012-10-30T14:26,-16
CDISCPILOT01,LB,CDISC002,5,BASO,Basophils,HEMATOLOGY,,0.10,10^9/L,0,0.2,0.1,0.1,10^9/L,0,0.2,NORMAL,,,BASOMETHOD,Y,1,SCREENING 1,SCREENING,2012-10-30T14:26,-16
CDISCPILOT01,LB,CDISC002,42,BASO,Basophils,HEMATOLOGY,,0.03,10^9/L,0,0.2,0.03,0.03,10^9/L,0,0.2,NORMAL,,,BASOMETHOD,,4,WEEK 2,TREATMENT,2012-11-28T10:00,14
CDISCPILOT01,LB,CDISC001,73,ALB,Albumin,CHEMISTRY,ALBCAT1,3.6,g/dL,3.5,4.6,36,36,g/dL,35,46,NORMAL,,URINE,METHOD-A,Y,5,WEEK 4,TREATMENT,2012-12-11T12:16,27
CDISCPILOT01,LB,CDISC002,77,BASO,Basophils,HEMATOLOGY,,0.04,10^9/L,0,0.2,0.04,0.03999999999999999,10^12/L,0,0.2,NORMAL,,,BASOMETHOD,,5,WEEK 4,TREATMENT,2012-12-11T12:16,27
CDISCPILOT01,LB,CDISC002,107,BASO,Basophils,HEMATOLOGY,,0.04,10^9/L,0,0.2,0.04,0.03999999999999999,10^9/L,0,0.2,NORMAL,,,BASOMETHOD,,7,WEEK 6,TREATMENT,2012-12-25T14:00,41
CDISCPILOT01,LB,CDISC002,137,BASO,Basophils,HEMATOLOGY,,0.02,10^9/L,0,0.2,0.02,0.02,10^9/L,0,0.2,NORMAL,,,BASOMETHOD,,8,WEEK 8,TREATMENT,2013-01-08T12:13,55
CDISCPILOT01,LB,CDISC003,5,BASO,Basophils,HEMATOLOGY,,0.07,10^9/L,0,0.2,0.07,0.07,10^9/L,0,0.2,NORMAL,,,BASOMETHOD,Y,1,SCREENING 1,SCREENING,2013-08-20T12:27,-9
CDISCPILOT01,LB,CDISC003,42,BASO2,Basophils,HEMATOLOGY,,0.05,10^9/L,0,0.2,0.05,0.05,units,0,0.2,NORMAL,,,BASOMETHOD,Y,4,WEEK 2,TREATMENT,2013-09-15T12:44,18
CDISCPILOT01,LB,CDISC003,77,BASO,Basophils,HEMATOLOGY,,0.06,10^9/L,0,0.2,0.06,0.06,10^9/L,0,0.2,NORMAL,,,BASOMETHOD,,5,WEEK 4,TREATMENT,2013-09-24T08:16,27
CDISCPILOT01,LB,CDISC003,107,BASO,Basophils,HEMATOLOGY,,0.06,10^9/L,0,0.2,0.06,0.06,10^9/L,0,0.2,NORMAL,,,BASOMETHOD,,7,WEEK 6,TREATMENT,2013-10-08T15:30,41
CDISCPILOT01,LB,CDISC003,137,BASO,Basophils,HEMATOLOGY,,0.04,10^9/L,0,0.2,0.04,0.03999999999999999,10^9/L,0,0.2,NORMAL,,,BASOMETHOD,,8,WEEK 8,TREATMENT,2013-10-22T11:54,55
CDISCPILOT01,LB,CDISC001,163,ALB,Albumin,HEMATOLOGY,ALBCAT1,4.1,g/dL,3.3,4.9,41,41,g/dL,33,49,NORMAL,,URINE,METHOD-A,Y,9,WEEK 12,TREATMENT,2013-11-05T13:54,69
CDISCPILOT01,LB,CDISC003,167,BASO,Basophils,HEMATOLOGY,,0.05,10^9/L,0,0.2,0.05,0.05,10^9/L,0,0.2,NORMAL,,,BASOMETHOD,,9,WEEK 12,TREATMENT,2013-11-05T13:54,69
