STUDYID,DOMAIN,USUBJID,PCSEQ,PCGRPID,PCREFID,PCTESTCD,PCTEST,PCCAT,PCSPEC,PCORRES,PCORRESU,PCSTRESC,PCSTRESN,PCSTRESU,PCDTC,PCRFTDTC
ABC-123,PC,ABC-123-0001,1,DY1_DRGX,123-0001-01,DRUGX,StudyDrug,ANALYTE,PLASMA,9,ug/mL,9,9,ug/mL,2001-02-01T08:35,2001-02-01T08:35
ABC-123,PC,ABC-123-0001,2,DY1_DRGX,123-0001-02,DRUGX,StudyDrug,ANALYTE,PLASMA,20,ug/mL,20,20,ug/mL,2001-02-01T08:55,2001-02-01T08:35
ABC-123,PC,ABC-123-0001,3,DY11_DRGX,123-0002-13,DRUGX,StudyDrug1,ANALYTE,PLASMA,10,ug/mL,10,10,ug/mL,2001-02-08T08:35,2001-02-08T08:35
