dataset,variable,label,type,length
dm.xpt,STUDYID,Study Identifier,Char,12
dm.xpt,DOMAIN,Domain Abbreviation,Char,2
dm.xpt,USUBJID,Unique Subject Identifier,Char,20
dm.xpt,SUBJID,Subject Identifier for the Study,Char,12
dm.xpt,RFSTDTC,Subject Reference Start Date/Time,Char,10
dm.xpt,RFENDTC,Subject Reference End Date/Time,Char,10
dm.xpt,RFXSTDTC,Date/Time of First Study Treatment,Char,10
dm.xpt,RFXENDTC,Date/Time of Last Study Treatment,Char,10
dm.xpt,ARMCD,Planned Arm Code,Char,8
dm.xpt,ARM,Description of Planned Arm,Char,28
dm.xpt,SETCD,Set Code,Char,8
tx.xpt,STUDYID,Study Identifier,Char,12
tx.xpt,DOMAIN,Domain Abbreviation,Char,2
tx.xpt,SETCD,Set Code,Char,8
tx.xpt,TXSEQ,Subject Identifier for the Study,Num,2
cm.xpt,STUDYID,Study Identifier,Char,12
cm.xpt,DOMAIN,Domain Abbreviation,Char,2
cm.xpt,USUBJID,Unique Subject Identifier,Char,8
cm.xpt,CMSEQ,Sequence Number,Num,8
cm.xpt,CMTRT,"Reported Name of Drug, Med, or Therapy",Char,200
cm.xpt,CMINDC,Indication,Char,200
cm.xpt,CMDOSE,Dose per Administration,Num,8
cm.xpt,CMDOSU,Dose Units,Char,6
cm.xpt,CMDOSFRQ,Dosing Frequency per Interval,Char,3
cm.xpt,CMROUTE,Route of Administration,Char,24
cm.xpt,EPOCH,Epoch,Char,9
cm.xpt,CMSTDTC,Start Date/Time of Medication,Char,10
cm.xpt,CMENDTC,End Date/Time of Medication,Char,10
cm.xpt,CMSTDY,Study Day of Start of Medication,Num,8
cm.xpt,CMENDY,Study Day of End of Medication,Num,8
cm.xpt,CMENRTPT,End Relative to Reference Time Point,Char,7
vs.xpt,Study Identifier,Char,12,CDISCPILOT01
vs.xpt,Domain Abbreviation,Char,2,VS
vs.xpt,Unique Subject Identifier,Char,8,CDISC001
vs.xpt,Sequence Number,Num,8,1
vs.xpt,Vital Signs Test Short Name,Char,8,DIABP_1
vs.xpt,Vital Signs Test Name,Char,24,Diastolic Blood Pressure
vs.xpt,Vital Signs Position of Subject,Char,8,STANDING
vs.xpt,Result or Finding in Original Units,Char,8,71
vs.xpt,Original Units,Char,9,mmHg
vs.xpt,Character Result/Finding in Std Format,Char,200,71
vs.xpt,Numeric Result/Finding in Standard Units,Num,8,71
vs.xpt,Standard Units,Char,9,mmHg
vs.xpt,Completion Status,Char,8,
vs.xpt,Location of Vital Signs Measurement,Char,11,
vs.xpt,Last Observation Before Exposure Flag,Char,1,
vs.xpt,Repetition Number,Num,8,
vs.xpt,Visit Number,Num,8,1
vs.xpt,Visit Name,Char,200,SCREENING 1
vs.xpt,Epoch,Char,9,SCREENING
vs.xpt,Date/Time of Measurements,Char,10,2012-11-23
vs.xpt,Study Day of Vital Signs,Num,8,-7
