STUDYID,RDOMAIN,USUBJID,IDVAR,IDVARVAL,QNAM,QLABEL,QVAL,QORIG,QEVAL
CDISC-TEST,DM,S001,,,RACE1,Race 1,WHITE,CRF,
CDISC-TEST,DM,S001,,,RACE2,Race 2,ASIAN,CRF,
CDISC-TEST,DM,S001,,,EXITT,Test name,Abcd,CRF,
CDISC-TEST,DM,S001,,,XENRFL,Test name,Abcd,CRF,
