STUDYID,USUBJID,SUBJID,SITEID,MHSEQ,MHTERM,MHDECOD,MHBODSYS,MHBDSYCD,MHLLT,MHLLTCD,MHPTCD,MHHLT,MHHLTCD,MHHLGT,MHHLGTCD,MHSOC,MHSOCCD
CDISCPILOT01,CDISC001,SUBJ1,SITE1,19,TONSILLECTOMY,Tonsillectomy,Surgical and medical procedures,10042613,Tonsillectomy,10044006,10044006,Tonsillar therapeutic procedures,10044005,Head and neck therapeutic procedures,10019190,Surgical and medical procedures,10042613
CDISCPILOT01,CDISC002,SUBJ2,SITE1,3,ANXIETY,Anxiety,Psychiatric disorders,10037175,Anxiety,10002855,10002855,Anxiety symptoms,10002869,Anxiety disorders and symptoms,10002861,Psychiatric disorders,10037175
