STUDYID,DOMAIN,USUBJID,ECSEQ,ECTRT,ECPRESP,ECOCCUR,ECDOSE,ECDOSU,ECDOSFRM,ECDOSFRQ,ECROUTE,ECLOT,ECPSTRG,ECPSTRGU,EPOCH,ECSTDTC,ECENDTC,ECSTDY,ECENDY
CDISCPILOT01,EC,CDISC001,1,ZANOMALINE,Y,Y,5,mL,INJECTION,QD,SUBCUTANEOUS,SDS580-359,10.8,g/L,TREATMENT,2012-11-30,2012-11-30,1,1
CDISCPILOT01,EC,CDISC001,2,ZANOMALINE,Y,Y,5,mL,INJECTION,QD,SUBCUTANEOUS,SDS580-359,10.8,g/L,TREATMENT,2012-12-01,2012-12-01,2,2
CDISCPILOT01,EC,CDISC001,3,ZANOMALINE,Y,Y,5,mL,INJECTION,QD,SUBCUTANEOUS,SDS580-359,10.8,g/L,TREATMENT,2012-12-02,2012-12-02,3,3
CDISCPILOT01,EC,CDISC001,4,ZANOMALINE,Y,Y,5,mL,INJECTION,QD,SUBCUTANEOUS,SDS580-359,10.8,g/L,TREATMENT,2012-12-03,2012-12-03,4,4
CDISCPILOT01,EC,CDISC001,5,ZANOMALINE,Y,Y,5,mL,INJECTION,QD,SUBCUTANEOUS,SDS580-359,10.8,g/L,TREATMENT,2012-12-04,2012-12-04,5,5
CDISCPILOT01,EC,CDISC001,6,ZANOMALINE,Y,Y,5,mL,INJECTION,QD,SUBCUTANEOUS,SDS580-359,10.8,g/L,TREATMENT,2012-12-05,2012-12-05,6,6
CDISCPILOT01,EC,CDISC001,7,ZANOMALINE,Y,Y,5,mL,INJECTION,QD,SUBCUTANEOUS,SDS580-359,10.8,g/L,TREATMENT,2012-12-06,2012-12-06,7,7
CDISCPILOT01,EC,CDISC001,8,ZANOMALINE,Y,Y,5,mL,INJECTION,QD,SUBCUTANEOUS,SDS580-359,10.8,g/L,TREATMENT,2012-12-07,2012-12-07,8,8
CDISCPILOT01,EC,CDISC001,9,ZANOMALINE,Y,Y,5,mL,INJECTION,QD,SUBCUTANEOUS,SDS580-359,10.8,g/L,TREATMENT,2012-12-08,2012-12-08,9,9
CDISCPILOT01,EC,CDISC001,10,ZANOMALINE,Y,Y,5,mL,INJECTION,QD,SUBCUTANEOUS,SDS580-359,10.8,g/L,TREATMENT,2012-12-09,2012-12-09,10,10
CDISCPILOT01,EC,CDISC009,122,PLACEBO,Y,N,,,INJECTION,QD,SUBCUTANEOUS,SDS580-485,0,g/L,TREATMENT,2013-02-20,2013-02-20,122,122
CDISCPILOT01,EC,CDISC009,123,PLACEBO,Y,N,,,INJECTION,QD,SUBCUTANEOUS,SDS580-485,0,g/L,TREATMENT,2013-02-21,2013-02-21,123,123
CDISCPILOT01,EC,CDISC009,124,PLACEBO,Y,N,,,INJECTION,QD,SUBCUTANEOUS,SDS580-485,0,g/L,TREATMENT,2013-02-22,2013-02-22,124,124
CDISCPILOT01,EC,CDISC009,125,PLACEBO,Y,N,,,INJECTION,QD,SUBCUTANEOUS,SDS580-485,0,g/L,TREATMENT,2013-02-23,2013-02-23,125,125
CDISCPILOT01,EC,CDISC009,126,PLACEBO,Y,N,,,INJECTION,QD,SUBCUTANEOUS,SDS580-485,0,g/L,TREATMENT,2013-02-24,2013-02-24,126,126
CDISCPILOT01,EC,CDISC009,127,PLACEBO,Y,N,,,INJECTION,QD,SUBCUTANEOUS,SDS580-485,0,g/L,TREATMENT,2013-02-25,2013-02-25,127,127
