STUDYID,DOMAIN,USUBJID,FOCID,MISEQ,MISPID,MITESTCD,MITEST,MIORRES,MISTRESC,MISPEC,MILAT,MIDIR,MIANTREG,MISPCUFL,MIBLFL,MIDTHREL,VISITNUM,VISIT,MIDTC,MIDY
CDISC-TEST,MI,CDISC-TEST-001,,1,,MIEXAM,Microscopic Examination ,"Amyloidosis, grade 2 ",AMYLOID,TESTIS/EPIDIDYMIS ,,HIGHER,,,,,,,2015-10-27 00:00:00,365
CDISC-TEST,MI,CDISC-TEST-001,,2,,MIEXAM,Microscopic Examination ,"Amyloidosis, grade 2 ",AMYLOID,TESTIS/EPIDIDYMIS ,,LOWER,,,,,,,2015-10-27 00:00:00,365
CDISC-TEST,MI,CDISC-TEST-002,,2,,MIEXAM,Microscopic Examination ,"Amyloidosis, grade 2 ",INFLAMMATION,TESTIS/EPIDIDYMIS ,,,,,,,,,2015-10-28 00:00:00,366
