dataset,variable,label,type,length
mh,STUDYID,Study Identifier,Char,50
mh,DOMAIN,Domain Abbreviation,Char,50
mh,USUBJID,Unique Subject Identifier,Char,50
mh,MHSEQ,Sequence Number,Num,8
mh,MHTERM,Reported Term for the Medical History,Char,50
mh,MHEVDTYP,Medical History Event Date Type,Char,50
mh,MHSTDTC,Start Date/Time of Medical History Event,Char,50
mh,MHSTDY,Study Day of Start of Observation,Num,8
