STUDYID,DOMAIN,USUBJID,DSSEQ,DSTERM,DSDECOD,DSCAT,DSSCAT,EPOCH,DSDTC,DSSTDTC
CDISCPILOT01,DS,CDISC001,1,INFORMED CONSENT OBTAINED,INFORMED CONSENT OBTAINED,PROTOCOL MILESTONE,,SCREENING,2003-09-21,2003-09-21
CDISCPILOT01,DS,CDISC001,2,RANDOMIZED,RANDOMIZED,PROTOCOL MILESTONE,,SCREENING,2003-09-30,2003-09-30
CDISCPILOT01,DS,CDISC001,3,COMPLETED,COMPLETED,DISPOSITION EVENT,STUDY PARTICIPATION,SCREENING,2003-09-30,2003-09-29
CDISCPILOT01,DS,CDISC001,4,COMPLETED,COMPLETED,DISPOSITION EVENT,STUDY PARTICIPATION,TREATMENT,2010-10-31,2010-10-31
CDISCPILOT01,DS,CDISC001,5,COMPLETED,COMPLETED,DISPOSITION EVENT,STUDY PARTICIPATION,FOLLOW-UP,2003-11-15,2003-11-15
