# Variable: --STRESC, --BLFL, --STRESU
# Condition: --BLFL="Y" and '--STRESC ^= Null
# Rule: 'Only one --BLFL per record having the same --TESTCD, --CAT, --SCAT, --SPEC, --METHOD values
Authorities:
- Organization: "FDA"
  Standards:
  - Name: "SDTMIG"
    References:
    - Citations:
      - Cited Guidance: Records with a baseline flag should have a corresponding standard result 
          with a standardized unit where available.
        Document: "FDA"
        Section: "FDAB026"
      Origin: "FDA Business Rules"
      Rule Identifier:
        Id: "FB2603"
        Version: "1"
      Version: "1.5"
    Version: "3.2"
  - Name: "SDTMIG"
    References:
    - Citations:
      - Cited Guidance: Records with a baseline flag should have a corresponding standard result 
          with a standardized unit where available.
        Document: "FDA"
        Section: "FDAB026"
      Origin: "FDA Business Rules"
      Rule Identifier:
        Id: "FB2603"
        Version: "1"
      Version: "1.5"
    Version: "3.3"
  - Name: "SDTMIG"
    References:
    - Citations:
      - Cited Guidance: Records with a baseline flag should have a corresponding standard result 
          with a standardized unit where available.
        Document: "FDA"
        Section: "FDAB026"
      Origin: "FDA Business Rules"
      Rule Identifier:
        Id: "FB2603"
        Version: "1"
      Version: "1.5"
    Version: "3.4"
  - Name: "SENDIG"
    References:
    - Citations:
      - Cited Guidance: Records with a baseline flag should have a corresponding standard result 
          with a standardized unit where available.
        Document: "FDA"
        Section: "FDAB026"
      Origin: "FDA Business Rules"
      Rule Identifier:
        Id: "FB2603"
        Version: "1"
      Version: "1.5"
    Version: "3.0"
  - Name: "SENDIG"
    References:
    - Citations:
      - Cited Guidance: Records with a baseline flag should have a corresponding standard result 
          with a standardized unit where available.
        Document: "FDA"
        Section: "FDAB026"
      Origin: "FDA Business Rules"
      Rule Identifier:
        Id: "FB2603"
        Version: "1"
      Version: "1.5"
    Version: "3.1"
  - Name: "SENDIG"
    References:
    - Citations:
      - Cited Guidance: Records with a baseline flag should have a corresponding standard result 
          with a standardized unit where available.
        Document: "FDA"
        Section: "FDAB026"
      Origin: "FDA Business Rules"
      Rule Identifier:
        Id: "FB2603"
        Version: "1"
      Version: "1.5"
    Version: "3.1.1"
  - Name: "SENDIG-GENETOX"
    References:
    - Citations:
      - Cited Guidance: Records with a baseline flag should have a corresponding standard result 
          with a standardized unit where available.
        Document: "FDA"
        Section: "FDAB026"
      Origin: "FDA Business Rules"
      Rule Identifier:
        Id: "FB2603"
        Version: "1"
      Version: "1.5"
    Version: "1.0"
  - Name: "SENDIG-DART"
    References:
    - Citations:
      - Cited Guidance: Records with a baseline flag should have a corresponding standard result 
          with a standardized unit where available.
        Document: "FDA"
        Section: "FDAB026"
      Origin: "FDA Business Rules"
      Rule Identifier:
        Id: "FB2603"
        Version: "1"
      Version: "1.5"
    Version: "1.1"
  - Name: "SENDIG-DART"
    References:
    - Citations:
      - Cited Guidance: Records with a baseline flag should have a corresponding standard result 
          with a standardized unit where available.
        Document: "FDA"
        Section: "FDAB026"
      Origin: "FDA Business Rules"
      Rule Identifier:
        Id: "FB2603"
        Version: "1"
      Version: "1.5"
    Version: "1.2"
  - Name: "SENDIG-AR"
    References:
    - Citations:
      - Cited Guidance: Records with a baseline flag should have a corresponding standard result 
          with a standardized unit where available.
        Document: "FDA"
        Section: "FDAB026"
      Origin: "FDA Business Rules"
      Rule Identifier:
        Id: "FB2603"
        Version: "1"
      Version: "1.5"
    Version: "1.0"
Check:
  all:
  - name: --STRESC
    operator: non_empty
  - name: --BLFL
    operator: equal_to
    value: "Y"
    value_is_literal: true
  - name: --BLFL
    operator: is_not_unique_set
    value:
    - --TESTCD
    - --CAT
    - --SCAT
    - --SPEC
    - --METHOD
    - USUBJID
Core:
  Id: CORE-000914
  Status: Published
  Version: "1"
Description: Exactly one record is present with a baseline flag (--BLFL is equal to 'Y') per unique 
  --TESTCD, --CAT, --SCAT, --SPEC, --METHOD combination.
Executability: Fully Executable
Outcome:
  Message: There are multiple records per assigned baseline flag (--BLFL).
  Output Variables:
  - --STRESC
  - --BLFL
Rule Type: Record Data
Scope:
  Classes:
    Include:
    - FINDINGS
  Domains:
    Include:
    - ALL
Sensitivity: Record
