STUDYID,DOMAIN,USUBJID,AESEQ,AELNKID,AETERM,AESEV,AESER,AEACN,AEREL,AEOUT,AESCAN,AESLIFE,EPOCH,AESTDTC,AEENDTC,AESTDY,AEENDY,AEENRTPT,AEENTPT
CDISCPILOT01,AE,CDISC01.100008,1,1,INJECTION SITE REACTION,MODERATE,N,DRUG WITHDRAWN,RELATED,NOT RECOVERED/NOT RESOLVED,N,N,TREATMENT,2012-12-02,,3,,ONGOING,2013-05-20
