STUDYID,DOMAIN,USUBJID,CMSEQ,CMTRT,EPOCH,CMSTDTC,CMSTRF,CMSTRTPT,CMENDTC,CMENRF,CMENRTPT
CDISCPILOT01,CM,CDISC001,1,ASPIRIN,SCREENING,2011,,151,2013-04,,
CDISCPILOT01,CM,CDISC001,2,ASPIRIN,SCREENING,,BEFORE,,2013-04,,
CDISCPILOT01,CM,CDISC001,3,ASPIRIN,SCREENING,,,VISIT 0,2013-04,,
CDISCPILOT01,CM,CDISC002,1,METAMUCIL,SCREENING,2012-03,,,,AFTER,
CDISCPILOT01,CM,CDISC002,2,METAMUCIL,SCREENING,,BEFORE,,,BEFORE,
CDISCPILOT01,CM,CDISC002,3,METAMUCIL,SCREENING,,,VISIT1,,DURING,
CDISCPILOT01,CM,CDISC003,1,"HYDROCORTISONE, TOPICAL",TREATMENT,2013-01-11,,,,,VISIT99
CDISCPILOT01,CM,CDISC003,1,"HYDROCORTISONE, TOPICAL",TREATMENT,,BEFORE,,,,VISIT99
CDISCPILOT01,CM,CDISC003,1,"HYDROCORTISONE, TOPICAL",TREATMENT,,,VISIT1,,,VISIT99
