STUDYID,USUBJID,SUBJID,SITEID,AESEQ,SRCDOM,SRCSEQ,ASEQ,AETERM,AEDECOD,AELLTCD,AEPTCD,AEHLT,--HLTCD,--HLGT,--HLGTCD,--SOC,--SOCCD,CMTRT,CMDECOD,CMCLAS,CMCLASCD,ATCy,ATCyCD,--CAT,--SCAT,ACATy,AESTDTC,ASTDT,ASTTM,ASTDTM,ASTDTF,ASTTMF,AEENDTC,AENDT,AENTM,AENDTM,AENDTF,AENTMF,ASTDY,AESTDY,AENDY,ADURN,ADURU,AEDUR,APERIOD,APERIODC,APHASE,AEOCCUR,AEPRESP,ANL01FL,TRTEMFL,TREM01FL,FUPFL
STUDY1,STUDY1_122222,122222,1,,,,,BLOOD PRESSURE INCREASED,BLOOD PRESSURE INCREASED,,,RECOVERED/RESOLVED,POSSIBLY,,,,,,,,,,,,,,,,,,,,,,,,,,,,,25,Days,,,,,,,,Y,,Y
STUDY1,STUDY1_122222,122222,1,,,,,BLOOD PRESSURE INCREASED,BLOOD PRESSURE INCREASED,,,RECOVERED/RESOLVED,POSSIBLY,,,,,,,,,,,,,,,,,,,,,,,,,,,,,,Days,,,,,,,,,,
STUDY1,STUDY1_122222,122222,1,,,,,BLOOD PRESSURE INCREASED,BLOOD PRESSURE INCREASED,,,RECOVERED/RESOLVED,POSSIBLY,,,,,,,,,,,,,,,,,,,,,,,,,,,,,,,,,,,,,,,,Y
