STUDYID,DOMAIN,USUBJID,LBSEQ,LBGRPID,LBTESTCD,LBTEST,LBTSTCND,LBCAT,LBSCAT,LBORRES,LBORRESU,LBRESSCL,LBRESTYP,LBCOLSRT,LBORNRLO,LBORNRHI,LBLLOD,LBSTRESC,LBSTRESN,LBSTRESU,LBSTNRLO,LBSTNRHI,LBSTNRC,LBNRIND,LBSTAT,LBREASND,LBLOINC,LBSPEC,LBMETHOD,LBTMTHSN,LBLOBXFL,LBFAST,LBDRVFL,LBCLSIG,LBPDUR
ABC123,LB,ABC12301001,1,,ALB,Albumin,,CHEMISTRY,,30,g/L,QUANTITATIVE,MASS CONCENTRATION,,35,50,,3,3,g/dL,3.5,5,,LOW,,,2862-1,SERUM,ELECTROPHORESIS,,Y,Y,,N,
ABC123,LB,ABC12301001,2,A,ALP,Alkaline Phosphatase,,CHEMISTRY,,398,IU/L,QUANTITATIVE,CATALYTIC CONCENTRATION,,40,160,,398,398,IU/L,40,160,,,,,6768-6,SERUM,,,,Y,,,
ABC123,LB,ABC12301001,3,A,ALP,Alkaline Phosphatase,,CHEMISTRY,,350,IU/L,QUANTITATIVE,CATALYTIC CONCENTRATION,,40,160,,350,350,IU/L,40,160,,,,,6768-6,SERUM,,,Y,Y,,,
ABC123,LB,ABC12301001,4,A,ALP,Alkaline Phosphatase,,CHEMISTRY,,,,QUANTITATIVE,CATALYTIC CONCENTRATION,"MEAN, ARITHMETIC",,,,374,374,IU/L,40,160,,,,,,SERUM,,,,Y,,,
ABC123,LB,ABC12301001,5,A,ALP,Alkaline Phosphatase,,CHEMISTRY,,,,QUANTITATIVE,CATALYTIC CONCENTRATION,,,,,398,398,IU/L,40,160,,,,,,SERUM,,,,Y,Y,,
ABC123,LB,ABC12301001,6,,CRP,C Reactive Protein,,CHEMISTRY,,2.5,mg/L,QUANTITATIVE,MASS CONCENTRATION,,0.5,10,,2.5,2.5,mg/L,0.5,10,,,,,30522-7,SERUM,,HIGH SENSITIVITY,Y,Y,,,
