{
    "rule": {
        "Authorities": [
            {
                "Organization": "CDISC",
                "Standards": [
                    {
                        "Name": "SDTMIG",
                        "References": [
                            {
                                "Citations": [
                                    {
                                        "Document": "IG v3.4",
                                        "Item": "6",
                                        "Section": "4.1.7",
                                        "Cited_Guidance": "If splitting Findings About by parent domain, then the dataset name would be the domain code, \"FA\", plus the two-character domain code for parent domain code (e.g., \"FACM\"). "
                                    }
                                ],
                                "Origin": "SDTM and SDTMIG Conformance Rules",
                                "Version": "2.0",
                                "Rule_Identifier": {
                                    "Id": "CG0333",
                                    "Version": "1"
                                }
                            }
                        ],
                        "Version": "3.4"
                    },
                    {
                        "Name": "SDTMIG",
                        "References": [
                            {
                                "Citations": [
                                    {
                                        "Document": "IG v3.2",
                                        "Item": "6",
                                        "Section": "4.1.1.7",
                                        "Cited_Guidance": "Split dataset names can be up to four characters in length. For example; if splitting by --CAT; then dataset names would be the domain name plus up to two additional characters (e.g., QS36 for SF-36). If splitting Findings About by parent domain; then the dataset name would be the domain name plus the two-character domain code describing the parent domain code (e.g., FACM). The four-character dataset-name limitation allows the use of a Supplemental Qualifier dataset associated with the split dataset."
                                    }
                                ],
                                "Origin": "SDTM and SDTMIG Conformance Rules",
                                "Version": "2.0",
                                "Rule_Identifier": {
                                    "Id": "CG0333",
                                    "Version": "1"
                                }
                            }
                        ],
                        "Version": "3.2"
                    },
                    {
                        "Name": "SDTMIG",
                        "References": [
                            {
                                "Citations": [
                                    {
                                        "Document": "IG v3.3",
                                        "Item": "6",
                                        "Section": "4.1.7",
                                        "Cited_Guidance": "Split dataset names can be up to four characters in length. For example; if splitting by --CAT; then dataset names would be the domain name plus up to two additional characters (e.g., QS36 for SF-36). If splitting Findings About by parent domain; then the dataset name would be the domain name plus the two-character domain code describing the parent domain code (e.g., FACM). The four-character dataset-name limitation allows the use of a Supplemental Qualifier dataset associated with the split dataset."
                                    }
                                ],
                                "Origin": "SDTM and SDTMIG Conformance Rules",
                                "Version": "2.0",
                                "Rule_Identifier": {
                                    "Id": "CG0333",
                                    "Version": "1"
                                }
                            }
                        ],
                        "Version": "3.3"
                    }
                ]
            }
        ],
        "Check": {
            "all": [
                {
                    "name": "dataset_name",
                    "operator": "matches_regex",
                    "value": "^[a-z(?-i)]{2}[a-z0-9(?-i)]{1,2}"
                },
                {
                    "name": "dataset_name",
                    "operator": "prefix_matches_regex",
                    "prefix": 2,
                    "value": "FA"
                },
                {
                    "name": "dataset_name",
                    "operator": "suffix_is_not_contained_by",
                    "suffix": 2,
                    "value": "$list_dataset_names"
                }
            ]
        },
        "Core": {
            "Id": "CDISC.SDTMIG.CG0333",
            "Status": "Draft",
            "Version": "1"
        },
        "Description": "Raise an error when parent domain referenced in Findings About dataset name is not present in the study.",
        "Executability": "Fully Executable",
        "Operations": [
            {
                "id": "$list_dataset_names",
                "operator": "dataset_names"
            }
        ],
        "Outcome": {
            "Message": "Parent domain referenced in Findings About dataset name is not present in the study",
            "Output_Variables": [
                "dataset_name",
                "$list_dataset_names"
            ]
        },
        "Scope": {
            "Classes": {
                "Include": [
                    "ALL"
                ]
            },
            "Domains": {
                "Include": [
                    "ALL"
                ]
            }
        },
        "Sensitivity": "Record",
        "Rule_Type": "Dataset Metadata Check"
    },
    "datasets": [
        {
            "filename": "fa.xpt",
            "label": "Findings About",
            "domain": "FA",
            "variables": [
                {
                    "name": "STUDYID",
                    "label": "Study Identifier",
                    "type": "Char",
                    "length": 12
                },
                {
                    "name": "DOMAIN",
                    "label": "Domain Abbreviation",
                    "type": "Char",
                    "length": 2
                },
                {
                    "name": "USUBJID",
                    "label": "Unique Subject Identifier",
                    "type": "Char",
                    "length": 8
                },
                {
                    "name": "FASEQ",
                    "label": "Sequence Number",
                    "type": "Num",
                    "length": 8
                },
                {
                    "name": "FALNKGRP",
                    "label": "Link Group ID",
                    "type": "Char",
                    "length": 200
                },
                {
                    "name": "FATESTCD",
                    "label": "Findings About Test Short Name",
                    "type": "Char",
                    "length": 5
                },
                {
                    "name": "FATEST",
                    "label": "Findings About Test Name",
                    "type": "Char",
                    "length": 20
                },
                {
                    "name": "FAOBJ",
                    "label": "Object of the Observation",
                    "type": "Char",
                    "length": 10
                },
                {
                    "name": "FACAT",
                    "label": "Category for Findings About",
                    "type": "Char",
                    "length": 23
                },
                {
                    "name": "FAORRES",
                    "label": "Result or Finding in Original Units",
                    "type": "Char",
                    "length": 8
                },
                {
                    "name": "FASTRESC",
                    "label": "Character Result/Finding in Std Format",
                    "type": "Char",
                    "length": 8
                },
                {
                    "name": "FALOC",
                    "label": "Location of the Finding About",
                    "type": "Char",
                    "length": 3
                },
                {
                    "name": "VISITNUM",
                    "label": "Visit Number",
                    "type": "Num",
                    "length": 8
                },
                {
                    "name": "EPOCH",
                    "label": "Epoch",
                    "type": "Char",
                    "length": 9
                },
                {
                    "name": "FADTC",
                    "label": "Date/Time of Collection",
                    "type": "Char",
                    "length": 10
                },
                {
                    "name": "FADY",
                    "label": "Study Day of Collection",
                    "type": "Num",
                    "length": 8
                }
            ],
            "records": {
                "STUDYID": [
                    "CDISCPILOT01",
                    "CDISCPILOT01",
                    "CDISCPILOT01",
                    "CDISCPILOT01",
                    "CDISCPILOT01"
                ],
                "DOMAIN": [
                    "FA",
                    "FA",
                    "FA",
                    "FA",
                    "FA"
                ],
                "USUBJID": [
                    "CDISC001",
                    "CDISC001",
                    "CDISC001",
                    "CDISC001",
                    "CDISC001"
                ],
                "FASEQ": [
                    1,
                    2,
                    3,
                    4,
                    5
                ],
                "FALNKGRP": [
                    "1",
                    "1",
                    "1",
                    "1",
                    "1"
                ],
                "FATESTCD": [
                    "OCCUR",
                    "SEV",
                    "OCCUR",
                    "OCCUR",
                    "OCCUR"
                ],
                "FATEST": [
                    "Occurrence Indicator",
                    "Severity/Intensity",
                    "Occurrence Indicator",
                    "Occurrence Indicator",
                    "Occurrence Indicator"
                ],
                "FAOBJ": [
                    "ERYTHEMA",
                    "ERYTHEMA",
                    "PAIN",
                    "INDURATION",
                    "PRURITIS"
                ],
                "FACAT": [
                    "INJECTION SITE REACTION",
                    "INJECTION SITE REACTION",
                    "INJECTION SITE REACTION",
                    "INJECTION SITE REACTION",
                    "INJECTION SITE REACTION"
                ],
                "FAORRES": [
                    "Y",
                    "MODERATE",
                    "N",
                    "N",
                    "N"
                ],
                "FASTRESC": [
                    "Y",
                    "MODERATE",
                    "N",
                    "N",
                    "N"
                ],
                "FALOC": [
                    "ARM",
                    "ARM",
                    "ARM",
                    "ARM",
                    "ARM"
                ],
                "VISITNUM": [
                    null,
                    null,
                    null,
                    null,
                    null
                ],
                "EPOCH": [
                    "TREATMENT",
                    "TREATMENT",
                    "TREATMENT",
                    "TREATMENT",
                    "TREATMENT"
                ],
                "FADTC": [
                    "2012-12-02",
                    "2012-12-02",
                    "2012-12-02",
                    "2012-12-02",
                    "2012-12-02"
                ],
                "FADY": [
                    3,
                    3,
                    3,
                    3,
                    3
                ]
            }
        },
        {
            "filename": "apmh.xpt",
            "label": "Associated Persons Medical History",
            "domain": "APMHE",
            "variables": [
                {
                    "name": "STUDYID",
                    "label": "Study Identifier",
                    "type": "Char",
                    "length": 50
                },
                {
                    "name": "DOMAIN",
                    "label": "Domain Abbreviation",
                    "type": "Char",
                    "length": 50
                },
                {
                    "name": "APID",
                    "label": "Associated Persons Identifier",
                    "type": "Char",
                    "length": 50
                },
                {
                    "name": "MHSEQ",
                    "label": "Sequence Number",
                    "type": "Num",
                    "length": 8
                },
                {
                    "name": "RSUBJID",
                    "label": "Related Subject or Pool Identifier",
                    "type": "Char",
                    "length": 50
                },
                {
                    "name": "SREL",
                    "label": "Subject, Device, or Study Relationship",
                    "type": "Char",
                    "length": 50
                },
                {
                    "name": "MHTERM",
                    "label": "Reported Term for the Medical History",
                    "type": "Char",
                    "length": 50
                },
                {
                    "name": "MHPRESP",
                    "label": "Medical History Event Pre-Specified",
                    "type": "Char",
                    "length": 50
                },
                {
                    "name": "MHOCCUR",
                    "label": "Medical History Occurrence",
                    "type": "Char",
                    "length": 50
                }
            ],
            "records": {
                "STUDYID": [
                    "ABC123",
                    "ABC123",
                    "ABC123",
                    "ABC123"
                ],
                "DOMAIN": [
                    "APMHE",
                    "APMHE",
                    "APMHE",
                    "APMHE"
                ],
                "APID": [
                    "2011-02-02-N120",
                    "2011-02-02-N121",
                    "2011-02-02-N122",
                    "2011-02-02-N123"
                ],
                "MHSEQ": [
                    1,
                    1,
                    1,
                    1
                ],
                "RSUBJID": [
                    "ABC123-01",
                    "ABC123-01",
                    "ABC123-01",
                    "ABC123-01"
                ],
                "SREL": [
                    "MOTHER, BIOLOGICAL",
                    "FATHER, BIOLOGICAL",
                    "SIBLING, FULL",
                    "COUSIN, BIOLOGICAL"
                ],
                "MHTERM": [
                    "POMPE DISEASE",
                    "POMPE DISEASE",
                    "POMPE DISEASE",
                    "POMPE DISEASE"
                ],
                "MHPRESP": [
                    "Y",
                    "Y",
                    "Y",
                    "Y"
                ],
                "MHOCCUR": [
                    "N",
                    "Y",
                    "N",
                    "Y"
                ]
            }
        }
    ],
    "standard": {
        "product": "sdtmig",
        "version": "3-3"
    },
    "codelists": []
}