STUDYID,DOMAIN,USUBJID,LBSEQ,LBTESTCD,LBTEST,LBCAT,LBORRES,LBORRESU,LBRESSCL,LBRESTYP,LBORNRLO,LBORNRHI,LBSTRESC,LBSTRESN,LBSTRESU,LBSTNRLO,LBSTNRHI,LBSTAT,LBREASND,LBLOINC,LBSPEC,LBMETHOD,LBTMTHSN,LBLOBXFL,LBFAST,VISITNUM,VISIT,LBDTC,LBPTFL
ABC123,LB,ABC12301001,1,CRP,C Reactive Protein,CHEMISTRY,2.5,mg/L,QUANTITATIVE,MASS CONCENTRATION,0.5,10,2.5,2.5,mg/L,0.5,10,,,30522-7,SERUM,,HIGH SENSITIVITY,Y,Y,1,Week 1,1999-06-19 00:00:00,Y
ABC123,LB,ABC12301001,2,WBC,Leukocytes,HEMATOLOGY,5.9,10^9/L,QUANTITATIVE,NUMBER CONCENTRATION,4,11,5.9,5.9,10^9/L,4,11,,,6690-2,BLOOD,AUTOMATED COUNT,,Y,Y,1,Week 1,1999-06-19 00:00:00,Y
ABC123,LB,ABC12301001,3,PH,pH,URINALYSIS,7.5,,QUANTITATIVE,LOG SUBSTANCE CONCENTRATION,5,9,7.5,,,5,9,,,5803-2,URINE,TEST STRIP,,Y,Y,1,Week 1,1999-06-19 00:00:00,Y
ABC123,LB,ABC12301001,4,CHOL,Cholesterol,CHEMISTRY,229,mg/dL,QUANTITATIVE,MASS CONCENTRATION,0,<200,229,229,mg/dL,0,199,,,2093-3,SERUM,,,,,2,Week 2,1999-07-21 00:00:00,Y
