STUDYID,DOMAIN,USUBJID,SUBJID,RFSTDTC,RFENDTC,RFXSTDTC,RFXENDTC,RFICDTC,RFPENDTC,DTHDTC,DTHFL,SITEID,INVNAM,INVID,BRTHDTC,AGE,AGETXT,AGEU,SEX,RACE,ETHNIC,ACTARM,ARMNRS,ACTARMUD,COUNTRY
ABC,DM,015246-300-0004-00006,300000400006,2018-05-08T11:20,2018-08-29T10:35,2018-05-08T11:20,2018-08-29T10:35,2018-04-17,2018-09-04,2018-09-04,N,3000004,"John,M",3000004,1947-12-23,70,,YEARS,F,WHITE,NOT HISPANIC OR LATINO,Screen Failure,,,GRC
ABC,DM,015246-300-0004-00007,300000400007,2018-05-08T11:20,2018-08-29T10:35,2018-05-08T11:20,2018-08-29T10:35,2018-04-17,2018-09-04,2018-09-04,N,3000004,"John,M",3000004,1947-12-23,70,,YEARS,F,WHITE,NOT HISPANIC OR LATINO,Not Assigned,,,GRC
ABC,DM,015246-300-0004-00008,300000400008,2018-05-08T11:20,2018-08-29T10:35,2018-05-08T11:20,2018-08-29T10:35,2018-04-17,2018-09-04,2018-09-04,N,3000004,"John,M",3000004,1947-12-23,70,,YEARS,F,WHITE,NOT HISPANIC OR LATINO,Not Assigned,,,GRC
ABC,DM,015246-300-0004-00009,300000400009,2018-05-08T11:20,2018-08-29T10:35,2018-05-08T11:20,2018-08-29T10:35,2018-04-17,2018-09-04,2018-09-04,N,3000004,"John,M",3000004,1947-12-23,70,,YEARS,F,WHITE,NOT HISPANIC OR LATINO,Screen Failure,,,GRC
