STUDYID,DOMAIN,USUBJID,MHSEQ,MHGRPID,MHTERM,MHDECOD,MHEVDTYP,MHCAT,MHSCAT,MHBODSYS,MHSTDTC,MHENRTPT,MHENTPT
ABC123,MH,123101,1,,ASTHMA,Asthma,,GENERAL MEDICAL HISTORY,RESPIRATORY,Respiratory system disorders,,ONGOING,2004-09-18
ABC123,MH,123101,2,,FREQUENT HEADACHES,Headache,,GENERAL MEDICAL HISTORY,CNS,Central and peripheral nervous system disorders,,ONGOING,2004-09-18
ABC123,MH,123101,3,,BROKEN LEG,Bone fracture,,GENERAL MEDICAL HISTORY,OTHER,Musculoskeletal system disorders,,BEFORE,2004-09-18
ABC123,MH,123101,4,CHF,CONGESTIVE HEART FAILURE,Cardiac failure congestive,SYMPTOM ONSET,CARDIAC MEDICAL HISTORY,,Cardiac disorders,2004-09-17,,
ABC123,MH,123101,5,CHF,CONGESTIVE HEART FAILURE,Cardiac failure congestive,DIAGNOSIS,CARDIAC MEDICAL HISTORY,,Cardiac disorders,2004-09-19,,
