STUDYID,DOMAIN,USUBJID,VISITNUM,VISIT,SVPRESP,SVOCCUR,VISITDY,EPOCH,SVSTDTC,SVENDTC,SVSTDY
CDISC-TEST,SV,CDISC-TEST-001,100,VISIT 1 (WEEK -2),Yes,Y,-15,SCREENING,2019-02-25,,-14
CDISC-TEST,SV,CDISC-TEST-001,200,VISIT 2 (WEEK 0),Y,Y,1,TREATMENT,2019-03-12,,1
CDISC-TEST,SV,CDISC-TEST-001,300,VISIT 3 (WEEK 1),Y,Y,8,TREATMENT,2019-03-19,,8
CDISC-TEST,SV,CDISC-TEST-001,400,VISIT 4 (WEEK 2),Y,Y,15,TREATMENT,2019-03-26,,15
CDISC-TEST,SV,CDISC-TEST-001,500,VISIT 5 (WEEK 3),Y,Y,22,TREATMENT,2019-04-02,,22
CDISC-TEST,SV,CDISC-TEST-001,600,VISIT 6 (WEEK 4),Y,Y,29,TREATMENT,2019-04-09,,29
CDISC-TEST,SV,CDISC-TEST-001,700,VISIT 7 (WEEK 5),Y,Y,36,TREATMENT,2019-04-16,,36
CDISC-TEST,SV,CDISC-TEST-001,800,VISIT 8 (WEEK 6),Y,Y,43,TREATMENT,2019-04-23,,43
CDISC-TEST,SV,CDISC-TEST-001,900,VISIT 9 (WEEK 7),Y,Y,50,TREATMENT,2019-04-30,,50
CDISC-TEST,SV,CDISC-TEST-001,1000,VISIT 10 (WEEK 8),Y,Y,57,TREATMENT,2019-05-07,,57
CDISC-TEST,SV,CDISC-TEST-001,1100,VISIT 11 (WEEK 9),Y,Y,64,TREATMENT,2019-05-14,,64
CDISC-TEST,SV,CDISC-TEST-001,1200,VISIT 12 (WEEK 10),Y,Y,71,TREATMENT,2019-05-21,,71
CDISC-TEST,SV,CDISC-TEST-001,1300,VISIT 13 (WEEK 11),Y,Y,78,TREATMENT,2019-05-28,,78
CDISC-TEST,SV,CDISC-TEST-001,1400,VISIT 14 (WEEK 12),Y,Y,85,TREATMENT,2019-06-04,,85
CDISC-TEST,SV,CDISC-TEST-001,1500,VISIT 15 (WEEK 13),Y,Y,92,TREATMENT,2019-06-11,,92
CDISC-TEST,SV,CDISC-TEST-001,1600,VISIT 16 (WEEK 14),Y,Y,99,TREATMENT,2019-06-18,,99
CDISC-TEST,SV,CDISC-TEST-001,1700,VISIT 17 (WEEK 15),Y,Y,106,TREATMENT,2019-06-25,,106
CDISC-TEST,SV,CDISC-TEST-001,1800,VISIT 18 (WEEK 16),Y,Y,113,TREATMENT,2019-07-02,,113
CDISC-TEST,SV,CDISC-TEST-001,1900,VISIT 19 (WEEK 17),Y,Y,120,TREATMENT,2019-07-09,,120
CDISC-TEST,SV,CDISC-TEST-001,2000,VISIT 20 (WEEK 18),Y,Y,127,TREATMENT,2019-07-16,,127
CDISC-TEST,SV,CDISC-TEST-001,2100,VISIT 21 (WEEK 19),Y,Y,134,TREATMENT,2019-07-23,,134
CDISC-TEST,SV,CDISC-TEST-001,2200,VISIT 22 (WEEK 20),Y,Y,141,TREATMENT,2019-07-30,,141
CDISC-TEST,SV,CDISC-TEST-001,2300,VISIT 23 (WEEK 21),Y,Y,148,TREATMENT,2019-08-06,,148
CDISC-TEST,SV,CDISC-TEST-001,2400,VISIT 24 (WEEK 22),Y,Y,155,TREATMENT,2019-08-13,,155
CDISC-TEST,SV,CDISC-TEST-001,2500,VISIT 25 (WEEK 23),Y,Y,162,TREATMENT,2019-08-20,,162
CDISC-TEST,SV,CDISC-TEST-001,2600,VISIT 26 (WEEK 24),Y,Y,169,TREATMENT,2019-08-27,,169
CDISC-TEST,SV,CDISC-TEST-001,2700,VISIT 27 (WEEK 25),Y,Y,176,TREATMENT,2019-09-03,,176
CDISC-TEST,SV,CDISC-TEST-001,2800,VISIT 28 (WEEK 26),Y,N,183,TREATMENT,2019-09-10,,183
CDISC-TEST,SV,CDISC-TEST-001,2800.1,,N,Y,184,TREATMENT,2019-08-01,,184
CDISC-TEST,SV,CDISC-TEST-001,2900,END OF TRIAL,Y,Y,213,FOLLOW-UP,2019-10-10,,213
CDISC-TEST,SV,CDISC-TEST-002,100,VISIT 1 (WEEK -2),Y,Y,-15,SCREENING,2019-01-15,,-14
CDISC-TEST,SV,CDISC-TEST-002,200,VISIT 2 (WEEK 0),Y,Y,1,TREATMENT,2019-01-30,,1
CDISC-TEST,SV,CDISC-TEST-002,300,VISIT 3 (WEEK 1),Y,Y,8,TREATMENT,2019-02-06,,8
CDISC-TEST,SV,CDISC-TEST-002,400,VISIT 4 (WEEK 2),Y,Y,15,TREATMENT,2019-02-13,,15
CDISC-TEST,SV,CDISC-TEST-002,500,VISIT 5 (WEEK 3),Y,Y,22,TREATMENT,2019-02-20,,22
CDISC-TEST,SV,CDISC-TEST-002,600,VISIT 6 (WEEK 4),Y,Y,29,TREATMENT,2019-02-27,,29
CDISC-TEST,SV,CDISC-TEST-002,700,VISIT 7 (WEEK 5),Y,Y,36,TREATMENT,2019-03-06,,36
CDISC-TEST,SV,CDISC-TEST-002,800,VISIT 8 (WEEK 6),Y,Y,43,TREATMENT,2019-03-13,,43
CDISC-TEST,SV,CDISC-TEST-002,900,VISIT 9 (WEEK 7),Y,Y,50,TREATMENT,2019-03-20,,50
CDISC-TEST,SV,CDISC-TEST-002,1000,VISIT 10 (WEEK 8),Y,Y,57,TREATMENT,2019-03-27,,57
CDISC-TEST,SV,CDISC-TEST-002,1100,VISIT 11 (WEEK 9),Y,Y,64,TREATMENT,2019-04-03,,64
CDISC-TEST,SV,CDISC-TEST-002,1200,VISIT 12 (WEEK 10),Y,Y,71,TREATMENT,2019-04-10,,71
CDISC-TEST,SV,CDISC-TEST-002,1300,VISIT 13 (WEEK 11),Y,Y,78,TREATMENT,2019-04-17,,78
CDISC-TEST,SV,CDISC-TEST-002,1400,VISIT 14 (WEEK 12),Y,Y,85,TREATMENT,2019-04-24,,85
CDISC-TEST,SV,CDISC-TEST-002,1500,VISIT 15 (WEEK 13),Y,Y,92,TREATMENT,2019-05-01,,92
CDISC-TEST,SV,CDISC-TEST-002,1600,VISIT 16 (WEEK 14),Y,Y,99,TREATMENT,2019-05-08,,99
CDISC-TEST,SV,CDISC-TEST-002,1700,VISIT 17 (WEEK 15),Y,Y,106,TREATMENT,2019-05-15,,106
CDISC-TEST,SV,CDISC-TEST-002,1800,VISIT 18 (WEEK 16),Y,Y,113,TREATMENT,2019-05-22,,113
CDISC-TEST,SV,CDISC-TEST-002,1900,VISIT 19 (WEEK 17),Y,Y,120,TREATMENT,2019-05-29,,120
CDISC-TEST,SV,CDISC-TEST-002,2000,VISIT 20 (WEEK 18),Y,Y,127,TREATMENT,2019-06-05,,127
CDISC-TEST,SV,CDISC-TEST-002,2100,VISIT 21 (WEEK 19),Y,Y,134,TREATMENT,2019-06-12,,134
CDISC-TEST,SV,CDISC-TEST-002,2200,VISIT 22 (WEEK 20),Y,Y,141,TREATMENT,2019-06-19,,141
CDISC-TEST,SV,CDISC-TEST-002,2300,VISIT 23 (WEEK 21),Y,Y,148,TREATMENT,2019-06-26,,148
CDISC-TEST,SV,CDISC-TEST-002,2400,VISIT 24 (WEEK 22),Y,Y,155,TREATMENT,2019-07-03,,155
CDISC-TEST,SV,CDISC-TEST-002,2500,VISIT 25 (WEEK 23),Y,Y,162,TREATMENT,2019-07-10,,162
CDISC-TEST,SV,CDISC-TEST-002,2600,VISIT 26 (WEEK 24),Y,Y,169,TREATMENT,2019-07-17,,169
CDISC-TEST,SV,CDISC-TEST-002,2700,VISIT 27 (WEEK 25),Y,Y,176,TREATMENT,2019-07-24,,176
CDISC-TEST,SV,CDISC-TEST-002,2800,VISIT 28 (WEEK 26),Y,Y,183,TREATMENT,2019-07-31,,183
CDISC-TEST,SV,CDISC-TEST-002,2800.1,,UNK,,184,TREATMENT,2019-08-01,,184
CDISC-TEST,SV,CDISC-TEST-002,2900,END OF TRIAL,No,Y,213,FOLLOW-UP,2019-08-30,,213
