STUDYID,DOMAIN,USUBJID,VSSEQ,VSTESTCD,VSTEST,VSPOS,VSORRES,VSORRESU,VSSTRESC,VSSTRESN,VSSTRESU,VSSTAT,VSLOC,VSLOBXFL,VSREPNUM,VISITNUM,VISIT,EPOCH,VSDTC,VSDY
CDISCPILOT01,VS,CDISC001,1,DIABP,Diastolic Blood Pressure,STANDING,71,mmHg,71,71,mmHg,,,,,1,SCREENING 1,SCREENING,2012-11-23,-7
CDISCPILOT01,VS,CDISC001,2,DIABP,Diastolic Blood Pressure,STANDING,71,mmHg,71,71,mmHg,,,,,2,SCREENING 2,SCREENING,2012-11-28,-2
CDISCPILOT01,VS,CDISC001,3,DIABP,Diastolic Blood Pressure,STANDING,83,mmHg,83,83,mmHg,,,Y,,3,BASELINE,SCREENING,2012-11-30,1
CDISCPILOT01,VS,CDISC001,4,DIABP,Diastolic Blood Pressure,STANDING,79,mmHg,79,79,mmHg,,,,,4,WEEK 2,TREATMENT,2012-12-13,14
CDISCPILOT01,VS,CDISC002,1,DIABP,Diastolic Blood Pressure,STANDING,60,mmHg,60,60,mmHg,,,,,1,SCREENING 1,SCREENING,2012-10-30,-16
CDISCPILOT01,VS,CDISC002,2,DIABP,Diastolic Blood Pressure,STANDING,64,mmHg,64,64,mmHg,,,,,2,SCREENING 2,SCREENING,2012-11-14,-1
CDISCPILOT01,VS,CDISC002,3,DIABP,Diastolic Blood Pressure,STANDING,64,mmHg,64,64,mmHg,,,Y,,3,BASELINE,SCREENING,2012-11-15,1
CDISCPILOT01,VS,CDISC002,4,DIABP,Diastolic Blood Pressure,STANDING,58,mmHg,58,58,mmHg,,,,,4,WEEK 2,TREATMENT,2012-11-28,14
