{4 items
"rule":{9 items
"Authorities":[2 items
0:{2 items
"Organization":"CDISC"
"Standards":[4 items
0:{3 items
"Name":"SDTMIG"
"References":[1 item
0:{4 items
"Citations":[1 item
0:{3 items
"Document":"IG v3.4"
"Section":"4.4.10"
"Cited_Guidance":"Within the context that defines uniqueness for a time point, which may include domain, visit, and reference time point, there must be a one-to-relationship between values of --TPT and --TPTNUM. in other words, if domain, visit, and reference time point uniquely identify subject data, then if two subjects have records with the same values of DOMAIN, VISITNUM, --TPTREF, and --TPTNUM, then these records may not have different time point descriptions in --TPT."
}
]
"Origin":"SDTM and SDTMIG Conformance Rules"
"Version":"2.0"
"Rule_Identifier":{2 items
"Id":"CG0240"
"Version":"2"
}
}
]
"Version":"3.4"
}
1:{3 items
"Name":"SDTMIG"
"References":[1 item
0:{4 items
"Citations":[1 item
0:{3 items
"Document":"IG v3.3"
"Section":"4.4.10"
"Cited_Guidance":"Within the context that defines uniqueness for a time point, which may include domain, visit, and reference time point, there must be a one-to-relationship between values of --TPT and --TPTNUM. in other words, if domain, visit, and reference time point uniquely identify subject data, then if two subjects have records with the same values of DOMAIN, VISITNUM, --TPTREF, and --TPTNUM, then these records may not have different time point descriptions in --TPT."
}
]
"Origin":"SDTM and SDTMIG Conformance Rules"
"Version":"2.0"
"Rule_Identifier":{2 items
"Id":"CG0240"
"Version":"2"
}
}
]
"Version":"3.3"
}
2:{3 items
"Name":"SDTMIG"
"References":[1 item
0:{4 items
"Citations":[1 item
0:{3 items
"Document":"IG v3.2"
"Section":"4.1.4.10"
"Cited_Guidance":"Within the context that defines uniqueness for a time point, which may include domain, visit, and reference time point, there must be a one-to-relationship between values of --TPT and --TPTNUM. in other words, if domain, visit, and reference time point uniquely identify subject data, then if two subjects have records with the same values of DOMAIN, VISITNUM, --TPTREF, and --TPTNUM, then these records may not have different time point descriptions in --TPT."
}
]
"Origin":"SDTM and SDTMIG Conformance Rules"
"Version":"2.0"
"Rule_Identifier":{2 items
"Id":"CG0240"
"Version":"2"
}
}
]
"Version":"3.2"
}
3:{4 items
"Name":"TIG"
"References":[1 item
0:{4 items
"Citations":[1 item
0:{4 items
"Document":"TIG 1.0"
"Item":"Sub Section Planned Timing Num 5"
"Section":"2.8.7.5"
"Cited_Guidance":"Timepoints will be represented using both --TPT and --TPTNUM. There will be a one-to-one relationship between the values of --TPT and --TPTNUM."
}
]
"Origin":"TIG Conformance Rules"
"Version":"1.0"
"Rule_Identifier":{2 items
"Id":"TIG0448"
"Version":"1"
}
}
]
"Substandard":"SDTM"
"Version":"1.0"
}
]
}
1:{2 items
"Organization":"FDA"
"Standards":[3 items
0:{3 items
"Name":"SDTMIG"
"References":[1 item
0:{4 items
"Citations":[1 item
0:{3 items
"Document":"FDA"
"Section":"FDAB009"
"Cited_Guidance":"All paired variables should have a one-to-one relationship. Examples include short name and name of test; parameter name and parameter code or number; variable name and variable label, etc."
}
]
"Origin":"FDA Business Rules"
"Version":"1.5"
"Rule_Identifier":{2 items
"Id":"FB0922"
"Version":"1"
}
}
]
"Version":"3.2"
}
1:{3 items
"Name":"SDTMIG"
"References":[1 item
0:{4 items
"Citations":[1 item
0:{3 items
"Document":"FDA"
"Section":"FDAB009"
"Cited_Guidance":"All paired variables should have a one-to-one relationship. Examples include short name and name of test; parameter name and parameter code or number; variable name and variable label, etc."
}
]
"Origin":"FDA Business Rules"
"Version":"1.5"
"Rule_Identifier":{2 items
"Id":"FB0922"
"Version":"1"
}
}
]
"Version":"3.3"
}
2:{3 items
"Name":"SDTMIG"
"References":[1 item
0:{4 items
"Citations":[1 item
0:{3 items
"Document":"FDA"
"Section":"FDAB009"
"Cited_Guidance":"All paired variables should have a one-to-one relationship. Examples include short name and name of test; parameter name and parameter code or number; variable name and variable label, etc."
}
]
"Origin":"FDA Business Rules"
"Version":"1.5"
"Rule_Identifier":{2 items
"Id":"FB0922"
"Version":"1"
}
}
]
"Version":"3.4"
}
]
}
]
"Check":{1 item
"all":[3 items
0:{2 items
"name":"VISITNUM"
"operator":"not_exists"
}
1:{2 items
"name":"--TPTREF"
"operator":"not_exists"
}
2:{3 items
"name":"--TPT"
"operator":"is_not_unique_relationship"
"value":"--TPTNUM"
}
]
}
"Core":{3 items
"Id":"CORE-000141"
"Status":"Published"
"Version":"1"
}
"Description":"Trigger error when VISITNUM and --TPTREF are not present and --TPT and --TPTNUM does not have a one-to-one relationship"
"Executability":"Fully Executable"
"Outcome":{2 items
"Message":"--TPT and --TPTNUM do not have a one-to-one relationship"
"Output_Variables":[2 items
0:"--TPT"
1:"--TPTNUM"
]
}
"Scope":{3 items
"Classes":{1 item
"Include":[1 item
0:"ALL"
]
}
"Domains":{1 item
"Include":[1 item
0:"ALL"
]
}
"Use_Case":"INDH"
}
"Sensitivity":"Record"
"Rule_Type":"Record Data"
}
"datasets":[2 items
0:{5 items
"filename":"ft.xpt"
"label":"Functional Tests"
"domain":"FT"
"variables":[20 items
0:{4 items
"name":"STUDYID"
"label":"Study Identifier"
"type":"Char"
"length":12
}
1:{4 items
"name":"DOMAIN"
"label":"Domain Abbreviation"
"type":"Char"
"length":2
}
2:{4 items
"name":"USUBJID"
"label":"Unique Subject Identifier"
"type":"Char"
"length":8
}
3:{4 items
"name":"FTSEQ"
"label":"Sequence Number"
"type":"Num"
"length":8
}
4:{4 items
"name":"FTTESTCD"
"label":"Short Name of Test"
"type":"Char"
"length":7
}
5:{4 items
"name":"FTTEST"
"label":"Name of Test"
"type":"Char"
"length":23
}
6:{4 items
"name":"FTCAT"
"label":"Category"
"type":"Char"
"length":8
}
7:{4 items
"name":"FTSCAT"
"label":"Subcategory"
"type":"Char"
"length":200
}
8:{4 items
"name":"FTORRES"
"label":"Result or Finding in Original Units"
"type":"Char"
"length":12
}
9:{4 items
"name":"FTSTRESC"
"label":"Result or Finding in Standard Format"
"type":"Char"
"length":200
}
10:{4 items
"name":"FTSTRESN"
"label":"Numeric Result/Finding in Standard Units"
"type":"Num"
"length":8
}
11:{4 items
"name":"FTLOBXFL"
"label":"Last Observation Before Exposure Flag"
"type":"Char"
"length":1
}
12:{4 items
"name":"FTREPNUM"
"label":"Repetition Number"
"type":"Num"
"length":8
}
13:{4 items
"name":"VISIT"
"label":"Visit Name"
"type":"Char"
"length":200
}
14:{4 items
"name":"EPOCH"
"label":"Epoch"
"type":"Char"
"length":9
}
15:{4 items
"name":"FTDTC"
"label":"Date/Time of Test"
"type":"Char"
"length":19
}
16:{4 items
"name":"FTDY"
"label":"Study Day of Test"
"type":"Num"
"length":8
}
17:{4 items
"name":"FTTPT"
"label":"Planned Time Point Name"
"type":"Char"
"length":200
}
18:{4 items
"name":"FTTPTNUM"
"label":"Planned Time Point Number"
"type":"Num"
"length":8
}
19:{4 items
"name":"FTELTM"
"label":"Planned Elapsed Time from Time Point Ref"
"type":"Char"
"length":200
}
]
"records":{20 items
"STUDYID":[4 items
0:"CDISCPILOT01"
1:"CDISCPILOT01"
2:"CDISCPILOT01"
3:"CDISCPILOT01"
]
"DOMAIN":[4 items
0:"FT"
1:"FT"
2:"FT"
3:"FT"
]
"USUBJID":[4 items
0:"CDISC001"
1:"CDISC001"
2:"CDISC007"
3:"CDISC007"
]
"FTSEQ":[4 items
0:120
1:121
2:134
3:135
]
"FTTESTCD":[4 items
0:"AVL0201"
1:"AVL0202"
2:"AVL0215"
3:"AVL0216"
]
"FTTEST":[4 items
0:"AVL02-List A Word 1"
1:"AVL02-List A Word 2"
2:"AVL02-List A Word 15"
3:"AVL02-List A Word 16"
]
"FTCAT":[4 items
0:"AVLT-REY"
1:"AVLT-REY"
2:"AVLT-REY"
3:"AVLT-REY"
]
"FTSCAT":[4 items
0:"FORM 1"
1:"FORM 1"
2:"FORM 1"
3:"FORM 1"
]
"FTORRES":[4 items
0:"RECALLED"
1:"RECALLED"
2:"RECALLED"
3:"RECALLED"
]
"FTSTRESC":[4 items
0:"RECALLED"
1:"RECALLED"
2:"RECALLED"
3:"RECALLED"
]
"FTSTRESN":[4 items
0:NULL
1:NULL
2:NULL
3:NULL
]
"FTLOBXFL":[4 items
0:"Y"
1:"Y"
2:""
3:""
]
"FTREPNUM":[4 items
0:7
1:7
2:7
3:7
]
"VISIT":[4 items
0:"SCREENING 2"
1:"SCREENING 2"
2:"EARLY DISCONTINUATION RETRIEVAL"
3:"EARLY DISCONTINUATION RETRIEVAL"
]
"EPOCH":[4 items
0:"SCREENING"
1:"SCREENING"
2:"TREATMENT"
3:"TREATMENT"
]
"FTDTC":[4 items
0:"2012-11-28T13:00"
1:"2012-11-28T13:00"
2:"2013-06-20T10:00"
3:"2013-06-20T10:00"
]
"FTDY":[4 items
0:-2
1:-2
2:167
3:167
]
"FTTPT":[4 items
0:"30 MIN POST"
1:"30 MIN POST"
2:"60 MIN POST"
3:"60 MIN POST"
]
"FTTPTNUM":[4 items
0:1
1:1
2:2
3:2
]
"FTELTM":[4 items
0:"PT30M"
1:"PT30M"
2:"PT30M"
3:"PT30M"
]
}
}
1:{5 items
"filename":"vs.xpt"
"label":"Vital Signs"
"domain":"VS"
"variables":[23 items
0:{4 items
"name":"STUDYID"
"label":"Study Identifier"
"type":"Char"
"length":12
}
1:{4 items
"name":"DOMAIN"
"label":"Domain Abbreviation"
"type":"Char"
"length":2
}
2:{4 items
"name":"USUBJID"
"label":"Unique Subject Identifier"
"type":"Char"
"length":8
}
3:{4 items
"name":"VSSEQ"
"label":"Sequence Number"
"type":"Num"
"length":8
}
4:{4 items
"name":"VSTESTCD"
"label":"Vital Signs Test Short Name"
"type":"Char"
"length":6
}
5:{4 items
"name":"VSTEST"
"label":"Vital Signs Test Name"
"type":"Char"
"length":24
}
6:{4 items
"name":"VSPOS"
"label":"Vital Signs Position of Subject"
"type":"Char"
"length":8
}
7:{4 items
"name":"VSORRES"
"label":"Result or Finding in Original Units"
"type":"Char"
"length":8
}
8:{4 items
"name":"VSORRESU"
"label":"Original Units"
"type":"Char"
"length":9
}
9:{4 items
"name":"VSSTRESC"
"label":"Character Result/Finding in Std Format"
"type":"Char"
"length":200
}
10:{4 items
"name":"VSSTRESN"
"label":"Numeric Result/Finding in Standard Units"
"type":"Num"
"length":8
}
11:{4 items
"name":"VSSTRESU"
"label":"Standard Units"
"type":"Char"
"length":9
}
12:{4 items
"name":"VSSTAT"
"label":"Completion Status"
"type":"Char"
"length":8
}
13:{4 items
"name":"VSLOC"
"label":"Location of Vital Signs Measurement"
"type":"Char"
"length":11
}
14:{4 items
"name":"VSLOBXFL"
"label":"Last Observation Before Exposure Flag"
"type":"Char"
"length":1
}
15:{4 items
"name":"VSREPNUM"
"label":"Repetition Number"
"type":"Num"
"length":8
}
16:{4 items
"name":"VISITNUM"
"label":"Visit Number"
"type":"Num"
"length":8
}
17:{4 items
"name":"VISIT"
"label":"Visit Name"
"type":"Char"
"length":200
}
18:{4 items
"name":"EPOCH"
"label":"Epoch"
"type":"Char"
"length":9
}
19:{4 items
"name":"VSDTC"
"label":"Date/Time of Measurements"
"type":"Char"
"length":10
}
20:{4 items
"name":"VSDY"
"label":"Study Day of Vital Signs"
"type":"Num"
"length":8
}
21:{4 items
"name":"VSTPT"
"label":"Planned Time Point Name"
"type":"Char"
"length":200
}
22:{4 items
"name":"VSTPTNUM"
"label":"Planned Time Point Number"
"type":"Num"
"length":8
}
]
"records":{23 items
"STUDYID":[6 items
0:"CDISCPILOT01"
1:"CDISCPILOT01"
2:"CDISCPILOT01"
3:"CDISCPILOT01"
4:"CDISCPILOT01"
5:"CDISCPILOT01"
]
"DOMAIN":[6 items
0:"VS"
1:"VS"
2:"VS"
3:"VS"
4:"VS"
5:"VS"
]
"USUBJID":[6 items
0:"CDISC001"
1:"CDISC001"
2:"CDISC001"
3:"CDISC001"
4:"CDISC001"
5:"CDISC001"
]
"VSSEQ":[6 items
0:1
1:2
2:3
3:4
4:6
5:7
]
"VSTESTCD":[6 items
0:"DIABP"
1:"DIABP"
2:"DIABP"
3:"DIABP"
4:"DIABP"
5:"DIABP"
]
"VSTEST":[6 items
0:"Diastolic Blood Pressure"
1:"Diastolic Blood Pressure"
2:"Diastolic Blood Pressure"
3:"Diastolic Blood Pressure"
4:"Diastolic Blood Pressure"
5:"Diastolic Blood Pressure"
]
"VSPOS":[6 items
0:"STANDING"
1:"STANDING"
2:"STANDING"
3:"STANDING"
4:"SUPINE"
5:"STANDING"
]
"VSORRES":[6 items
0:"71"
1:"71"
2:"83"
3:"79"
4:"77"
5:"71"
]
"VSORRESU":[6 items
0:"mmHg"
1:"mmHg"
2:"mmHg"
3:"mmHg"
4:"mmHg"
5:"mmHg"
]
"VSSTRESC":[6 items
0:"71"
1:"71"
2:"83"
3:"79"
4:"77"
5:"71"
]
"VSSTRESN":[6 items
0:71
1:71
2:83
3:79
4:77
5:71
]
"VSSTRESU":[6 items
0:"mmHg"
1:"mmHg"
2:"mmHg"
3:"mmHg"
4:"mmHg"
5:"mmHg"
]
"VSSTAT":[6 items
0:""
1:""
2:""
3:""
4:""
5:""
]
"VSLOC":[6 items
0:""
1:""
2:""
3:""
4:""
5:""
]
"VSLOBXFL":[6 items
0:""
1:""
2:"Y"
3:""
4:""
5:""
]
"VSREPNUM":[6 items
0:NULL
1:NULL
2:NULL
3:NULL
4:1
5:2
]
"VISITNUM":[6 items
0:1
1:2
2:3
3:4
4:NULL
5:NULL
]
"VISIT":[6 items
0:"SCREENING 1"
1:"SCREENING 2"
2:"BASELINE"
3:"WEEK 2"
4:"WEEK 6"
5:"WEEK 6"
]
"EPOCH":[6 items
0:"SCREENING"
1:"SCREENING"
2:"SCREENING"
3:"TREATMENT"
4:"TREATMENT"
5:"TREATMENT"
]
"VSDTC":[6 items
0:"2012-11-23"
1:"2012-11-28"
2:"2012-11-30"
3:"2012-12-13"
4:"2013-01-10"
5:"2013-01-10"
]
"VSDY":[6 items
0:-7
1:-2
2:1
3:14
4:42
5:42
]
"VSTPT":[6 items
0:""
1:""
2:"PREDOSE"
3:"PREDOSE"
4:"5MIN POSTDOSE"
5:"5MIN POSTDOSE"
]
"VSTPTNUM":[6 items
0:NULL
1:NULL
2:-1
3:-1
4:-1
5:5
]
}
}
]
"standard":{2 items
"product":"sdtmig"
"version":"3-4"
}
"codelists":[]0 items
}