{
    "rule": {
        "Authorities": [
            {
                "Organization": "CDISC",
                "Standards": [
                    {
                        "Name": "SDTMIG",
                        "References": [
                            {
                                "Citations": [
                                    {
                                        "Document": "Model v2.0",
                                        "Item": "--EVDTYP",
                                        "Section": "Events",
                                        "Cited_Guidance": "MH Domain only"
                                    }
                                ],
                                "Origin": "SDTM and SDTMIG Conformance Rules",
                                "Version": "2.0",
                                "Rule_Identifier": {
                                    "Id": "CG0567",
                                    "Version": "1"
                                }
                            }
                        ],
                        "Version": "3.4"
                    },
                    {
                        "Name": "SDTMIG",
                        "References": [
                            {
                                "Citations": [
                                    {
                                        "Document": "Model v1.7",
                                        "Item": "MHEVDTYP",
                                        "Section": "Table 2.2.12.1",
                                        "Cited_Guidance": "The concept of domain-specific variables was first introduced in SDTM v1.5. These variables are for use only in a specific domain and will be identified in the appropriate implementation guide."
                                    }
                                ],
                                "Origin": "SDTM and SDTMIG Conformance Rules",
                                "Version": "2.0",
                                "Rule_Identifier": {
                                    "Id": "CG0567",
                                    "Version": "1"
                                }
                            }
                        ],
                        "Version": "3.3"
                    },
                    {
                        "Name": "TIG",
                        "References": [
                            {
                                "Citations": [
                                    {
                                        "Document": "SDTM v2.1",
                                        "Item": "--EVDTYP",
                                        "Section": "3.1.2 The Events Observation Class",
                                        "Cited_Guidance": "MH Domain only"
                                    }
                                ],
                                "Origin": "TIG Conformance Rules",
                                "Version": "1.0",
                                "Rule_Identifier": {
                                    "Id": "TIG0652",
                                    "Version": "1"
                                }
                            }
                        ],
                        "Substandard": "SDTM",
                        "Version": "1.0"
                    }
                ]
            }
        ],
        "Check": {
            "all": [
                {
                    "name": "--EVDTYP",
                    "operator": "exists"
                }
            ]
        },
        "Core": {
            "Id": "CORE-000114",
            "Status": "Published",
            "Version": "1"
        },
        "Description": "Raise an error when --EVDTYP is present in a dataset other than MH.",
        "Executability": "Fully Executable",
        "Outcome": {
            "Message": "--EVDTYP is present in a dataset other than MH.",
            "Output_Variables": [
                "--EVDTYP"
            ]
        },
        "Scope": {
            "Classes": {
                "Include": [
                    "EVENTS"
                ]
            },
            "Domains": {
                "Exclude": [
                    "MH"
                ]
            },
            "Use_Case": "INDH, PROD"
        },
        "Sensitivity": "Dataset",
        "Rule_Type": "Record Data"
    },
    "datasets": [
        {
            "filename": "ae.xpt",
            "label": "Adverse Events",
            "domain": "AE",
            "variables": [
                {
                    "name": "STUDYID",
                    "label": "Study Identifier",
                    "type": "Char",
                    "length": 50
                },
                {
                    "name": "DOMAIN",
                    "label": "Domain Abbreviation",
                    "type": "Char",
                    "length": 50
                },
                {
                    "name": "USUBJID",
                    "label": "Unique Subject Identifier",
                    "type": "Char",
                    "length": 50
                },
                {
                    "name": "AESEQ",
                    "label": "Sequence Number",
                    "type": "Num",
                    "length": 8
                },
                {
                    "name": "AETERM",
                    "label": "Reported Term for the Adverse Event",
                    "type": "Char",
                    "length": 50
                },
                {
                    "name": "AEMODIFY",
                    "label": "Modified Reported Term",
                    "type": "Char",
                    "length": 50
                },
                {
                    "name": "AEDECOD",
                    "label": "Dictionary-Derived Term",
                    "type": "Char",
                    "length": 50
                },
                {
                    "name": "AEBODSYS",
                    "label": "Body System or Organ Class",
                    "type": "Char",
                    "length": 50
                },
                {
                    "name": "AESEV",
                    "label": "Severity/Intensity",
                    "type": "Char",
                    "length": 50
                },
                {
                    "name": "AESER",
                    "label": "Serious Event",
                    "type": "Char",
                    "length": 50
                },
                {
                    "name": "AEACN",
                    "label": "Action Taken with Study Treatment",
                    "type": "Char",
                    "length": 50
                },
                {
                    "name": "AEREL",
                    "label": "Causality",
                    "type": "Char",
                    "length": 50
                },
                {
                    "name": "AEOUT",
                    "label": "Outcome of Adverse Event",
                    "type": "Char",
                    "length": 50
                },
                {
                    "name": "AESCONG",
                    "label": "Congenital Anomaly or Birth Defect",
                    "type": "Char",
                    "length": 50
                },
                {
                    "name": "AESDISAB",
                    "label": "Persist or Signif Disability/Incapacity",
                    "type": "Char",
                    "length": 50
                },
                {
                    "name": "AESDTH",
                    "label": "Results in Death",
                    "type": "Char",
                    "length": 50
                },
                {
                    "name": "AESHOSP",
                    "label": "Requires or Prolongs Hospitalization",
                    "type": "Char",
                    "length": 50
                },
                {
                    "name": "AESLIFE",
                    "label": "Is Life Threatening",
                    "type": "Char",
                    "length": 50
                },
                {
                    "name": "EPOCH",
                    "label": "Epoch",
                    "type": "Char",
                    "length": 50
                },
                {
                    "name": "AESTDTC",
                    "label": "Start Date/Time of Adverse Event",
                    "type": "Char",
                    "length": 50
                },
                {
                    "name": "AEENDTC",
                    "label": "End Date/Time of Adverse Event",
                    "type": "Char",
                    "length": 50
                },
                {
                    "name": "AESTDY",
                    "label": "Study Day of Start of Adverse Event",
                    "type": "Num",
                    "length": 8
                },
                {
                    "name": "AEENDY",
                    "label": "Study Day of End of Adverse Event",
                    "type": "Num",
                    "length": 8
                },
                {
                    "name": "AEENRF",
                    "label": "End Relative to Reference Period",
                    "type": "Char",
                    "length": 50
                }
            ],
            "records": {
                "STUDYID": [
                    "ABC123",
                    "ABC123",
                    "ABC123"
                ],
                "DOMAIN": [
                    "AE",
                    "AE",
                    "AE"
                ],
                "USUBJID": [
                    "123101",
                    "123101",
                    "123101"
                ],
                "AESEQ": [
                    1,
                    2,
                    3
                ],
                "AETERM": [
                    "POUNDING HEADACHE",
                    "BACK PAIN FOR 6 HOURS",
                    "PULMONARY EMBOLISM"
                ],
                "AEMODIFY": [
                    "HEADACHE",
                    "BACK PAIN",
                    ""
                ],
                "AEDECOD": [
                    "Headache",
                    "Back pain",
                    "Pulmonary embolism"
                ],
                "AEBODSYS": [
                    "Nervous system disorders",
                    "Musculoskeletal and connective tissue disorders",
                    "Vascular disorders"
                ],
                "AESEV": [
                    "SEVERE",
                    "MODERATE",
                    "MODERATE"
                ],
                "AESER": [
                    "N",
                    "N",
                    "Y"
                ],
                "AEACN": [
                    "NOT APPLICABLE",
                    "DOSE REDUCED",
                    "DOSE REDUCED"
                ],
                "AEREL": [
                    "DEFINITELY NOT RELATED",
                    "PROBABLY RELATED",
                    "PROBABLY NOT RELATED"
                ],
                "AEOUT": [
                    "RECOVERED/RESOLVED",
                    "RECOVERED/RESOLVED",
                    "RECOVERING/RESOLVING"
                ],
                "AESCONG": [
                    "",
                    "",
                    ""
                ],
                "AESDISAB": [
                    "",
                    "",
                    ""
                ],
                "AESDTH": [
                    "",
                    "",
                    ""
                ],
                "AESHOSP": [
                    "",
                    "",
                    "Y"
                ],
                "AESLIFE": [
                    "",
                    "",
                    "Y"
                ],
                "EPOCH": [
                    "SCREENING",
                    "TREATMENT",
                    "TREATMENT"
                ],
                "AESTDTC": [
                    "2005-10-12",
                    "2005-10-13T13:05",
                    "2005-10-21"
                ],
                "AEENDTC": [
                    "2005-10-12",
                    "2005-10-13T19:00",
                    ""
                ],
                "AESTDY": [
                    -1,
                    1,
                    9
                ],
                "AEENDY": [
                    -1,
                    1,
                    null
                ],
                "AEENRF": [
                    "",
                    "",
                    "AFTER"
                ]
            }
        }
    ],
    "codelists": []
}