STUDYID,DOMAIN,USUBJID,AETERM,AESER,AEOUT,AESDTH,AESTDTC,AEENDTC
CDISCPILOT01,AE,CDISC001,SHOULDER PAIN,N,NOT RECOVERED/NOT RESOLVED,,2018-07-08,
CDISCPILOT01,AE,CDISC001,HYPERTENSION,N,RECOVERED/RESOLVED,,2018-07-23,2018-07-23
CDISCPILOT01,AE,CDISC001,PNEUMONIA,Y,FATAL,,2018-08-14,2018-08-22
CDISCPILOT01,AE,CDISC002,WORSENING OF LEFT CATARACT,N,RECOVERED/RESOLVED,,2018-10-22,2018-10-22
CDISCPILOT01,AE,CDISC002,FEVER,N,RECOVERED/RESOLVED,,2018-11-02,2018-11-03
CDISCPILOT01,AE,CDISC002,HEALTH DETERIORATION DUE TO PROGRESSION OF DISEASE,Y,,Y,2019-02-04,2019-02-04
CDISCPILOT01,AE,CDISC003,HEARING LOSS,N,NOT RECOVERED/NOT RESOLVED,,2006-06-19,
CDISCPILOT01,AE,CDISC003,STROKE,Y,FATAL,Y,2006-06-20,2006-06-20
CDISCPILOT01,AE,CDISC004,ACCIDENTAL OVERDOSE,N,NOT RECOVERED/NOT RESOLVED,,2018-12-11,2018-12-11
