STUDYID,DOMAIN,USUBJID,AETERM,AEOUT,AEENDTC
CDISCPILOT01,AE,CDISC001,Heart Failure,FATAL,2006-04-01
CDISCPILOT01,AE,CDISC002,Sudden Cardiac Death,FATAL,2006-03-26
CDISCPILOT01,AE,CDISC003,Headache,FATAL,2006-03-19
CDISCPILOT01,AE,CDISC004,Accidental Overdose,FATAL,2018-10-24T11:13
