STUDYID,DOMAIN,USUBJID,SUBJID,RFSTDTC,RFENDTC,RFXSTDTC,RFXENDTC,RFICDTC,RFPENDTC,DTHDTC,DTHFL,SITEID,BRTHDTC,AGE,AGEU,SEX,RACE,ETHNIC,ARMCD,ARM,ACTARMCD,ACTARM,ARMNRS,ACTARMUD,COUNTRY
CDISCPILOT01,DM,CDISC001,1115,2006-01-12,2006-03-10,2006-01-12,2006-03-10,2006-01-03,2006-04-01,2006-04-01,y,701,1948,57,YEARS,M,WHITE,NOT HISPANIC OR LATINO,A,Drug A,A,Drug A,,,USA
CDISCPILOT01,DM,CDISC002,1211,2006-01-15,2006-02-28,2006-01-15,2006-02-28,2006-01-04,2006-03-26,2006-03-26,Y,701,1955,50,YEARS,F,WHITE,NOT HISPANIC OR LATINO,P,Placebo,P,Placebo,,,CAN
CDISCPILOT01,DM,CDISC003,1302,2006-01-16,2006-03-19,2006-01-16,2006-03-19,2006-01-02,2006-03-19,2006-03-19,,701,1933,68,YEARS,M,WHITE,NOT HISPANIC OR LATINO,B,Drug B,B,Drug B,,,USA
CDISCPILOT01,DM,CDISC004,1404,2018-02-01T10:02,2020-03-11T11:38,2018-02-01T10:02,2018-10-24T11:13,2018-01-12,2018-11-20,2018-10-24T11:13,Y,701,1938,79,YEARS,F,WHITE,NOT HISPANIC OR LATINO,A,Drug B,A,Drug A,,,USA
