STUDYID,DOMAIN,USUBJID,PPSEQ,PPGRPID,PPTESTCD,PPTEST,PPCAT,PPSCAT,PPORRES,PPORRESU,PPSTRESC,PPSTRESN,PPSTRESU,PPSTAT,PPREASND,PPSPEC,PPANMETH,TAETORD,EPOCH,PPDTC,PPDY,PPTPTREF,PPRFTDTC,PPSTINT,PPENINT
CDISCPILOT01,PP,CDISC001,1,,AMSS,Amt of Analyte at Steady State,,,,(Bq/g)/(kBq/kg),,,(Bq/g)/(kBq/kg),,,,,,,2012-11-28T12:00,,,,,
CDISCPILOT01,PP,CDISC001,2,,ARAUCD,Accum Ratio AUCTAU norm by dose,,,,(L/h)/(mg/m2/day),,,(L/h)/(mg/m2/day),,,,,,,2012-11-28T12:00,,,,,
CDISCPILOT01,PP,CDISC001,3,,AUCALLW,AUC All Norm by WT,,,,day*fg/mL/g,,,day*fg/mL/g,,,,,,,2012-11-28T12:00,,,,,
