STUDYID,DOMAIN,USUBJID,SUBJID,RFSTDTC,RFENDTC,RFXSTDTC,RFXENDTC,RFICDTC,RFPENDTC,DTHDTC,DTHFL,SITEID,AGE,AGEU,SEX,RACE,ARMCD,ARM,ACTARMCD,ACTARM,COUNTRY
CDISC-TEST,DM,CDISC-TEST-001,001,2019-03-12,2019-09-10,2019-03-12,2019-09-10,2019-02-25,2019-10-10,,,102,26,YEARS,F,,A,HUMAN INSULIN,A,HUMAN INSULIN,FRA
CDISC-TEST,DM,CDISC-TEST-002,002,2019-01-30,2019-07-31,2019-01-30,2019-07-31,2019-01-15,2019-08-30,,,103,34,YEARS,M,,A,HUMAN INSULIN,A,HUMAN INSULIN,JPN
CDISC-TEST,DM,CDISC-TEST-003,003,2019-01-26,2019-07-27,2019-01-26,2019-07-27,2019-01-11,2019-08-26,,,102,57,YEARS,F,,B,METFORMIN,B,METFORMIN,FRA
CDISC-TEST,DM,CDISC-TEST-004,004,2019-02-16,2019-08-17,2019-02-16,2019-08-17,2019-02-01,2019-09-16,,,102,31,YEARS,F,,A,HUMAN INSULIN,A,HUMAN INSULIN,FRA
CDISC-TEST,DM,CDISC-TEST-005,005,2019-03-02,2019-08-31,2019-03-02,2019-08-31,2019-02-15,2019-09-30,,,103,21,YEARS,F,,A,HUMAN INSULIN,A,HUMAN INSULIN,JPN
CDISC-TEST,DM,CDISC-TEST-006,006,2019-02-18,2019-08-19,2019-02-18,2019-08-19,2019-02-03,2019-09-18,,,102,52,YEARS,F,,A,HUMAN INSULIN,A,HUMAN INSULIN,FRA
CDISC-TEST,DM,CDISC-TEST-007,007,2019-02-25,2019-08-26,2019-02-25,2019-08-26,2019-02-10,2019-09-25,,,102,57,YEARS,M,,A,HUMAN INSULIN,A,HUMAN INSULIN,FRA
CDISC-TEST,DM,CDISC-TEST-008,008,2019-02-06,2019-08-07,2019-02-06,2019-08-07,2019-01-22,2019-09-06,,,102,50,YEARS,F,,A,HUMAN INSULIN,A,HUMAN INSULIN,FRA
CDISC-TEST,DM,CDISC-TEST-009,009,2019-01-25,2019-07-26,2019-01-25,2019-07-26,2019-01-10,2019-08-25,,,102,48,YEARS,M,,B,METFORMIN,B,METFORMIN,FRA
