{
  "rule": {
    "Check": {
      "all": [
        {
          "name": "--STRTPT",
          "operator": "non_empty"
        },
        {
          "name": "--STTPT",
          "operator": "empty"
        }
      ]
    },
    "Core": {
      "Id": "CDISC.SDTMIG.CG0061",
      "Version": "1",
      "Status": "Draft"
    },
    "Description": "Raise an error when --STRTPT is completed and --STTPT is not completed.",
    "Outcome": {
      "Message": "--STRTPT is completed, but --STTPT is not completed.",
      "Output_Variables": [
        "--STRTPT",
        "--STTPT"
      ]
    },
    "Sensitivity": "Record",
    "Executability": "Fully Executable",
    "Authorities": [
      {
        "Organization": "CDISC",
        "Standards": [
          {
            "Name": "SDTMIG",
            "Version": "3.4",
            "References": [
              {
                "Origin": "SDTM and SDTMIG Conformance Rules",
                "Version": "2.0",
                "Citations": [
                  {
                    "Document": "Model v2.0",
                    "Item": "--STTPT",
                    "Section": "Timing",
                    "Cited_Guidance": "The description or date and/or time of a time point that acts as a fixed reference for characterizing the start of an observation. This is the sponsor-defined reference  point referred to by --STRTPT."
                  }
                ],
                "Rule_Identifier": {
                  "Id": "CG0061",
                  "Version": "1"
                }
              }
            ]
          },
          {
            "Name": "SDTMIG",
            "Version": "3.3",
            "References": [
              {
                "Origin": "SDTM and SDTMIG Conformance Rules",
                "Version": "2.0",
                "Citations": [
                  {
                    "Document": "Model v1.7",
                    "Item": "Table 2.2.5.1 --STTPT",
                    "Section": "2.2.5 Timing Variables for All Classes",
                    "Cited_Guidance": "Description or date/time in ISO 8601 or other character format of the sponsor-defined reference point referred to by --STRTPT. Examples; \"2003-12-15\" or \"VISIT 1\"."
                  }
                ],
                "Rule_Identifier": {
                  "Id": "CG0061",
                  "Version": "1"
                }
              }
            ]
          },
          {
            "Name": "SDTMIG",
            "Version": "3.2",
            "References": [
              {
                "Origin": "SDTM and SDTMIG Conformance Rules",
                "Version": "2.0",
                "Citations": [
                  {
                    "Document": "Model v1.4",
                    "Item": "Specification",
                    "Section": "2.2.5 Timing Variables for All Classes",
                    "Cited_Guidance": "(--STTPT) Description or date/time in ISO 8601 or other character format of the sponsor-defined reference point referred to by --STRTPT. Examples; \"2003-12-15\" or \"VISIT 1\"."
                  }
                ],
                "Rule_Identifier": {
                  "Id": "CG0061",
                  "Version": "1"
                }
              }
            ]
          }
        ]
      }
    ],
    "Scope": {
      "Classes": {
        "Include": [
          "ALL"
        ]
      },
      "Domains": {
        "Include": [
          "ALL"
        ]
      }
    },
    "Rule_Type": "Record Data"
  },
  "datasets": [
    {
      "filename": "ho.xpt",
      "label": "Healthcare Encounters",
      "domain": "HO",
      "variables": [
        {
          "name": "STUDYID",
          "label": "Study Identifier",
          "type": "Char",
          "length": 50
        },
        {
          "name": "DOMAIN",
          "label": "Domain Abbreviation",
          "type": "Char",
          "length": 50
        },
        {
          "name": "USUBJID",
          "label": "Unique Subject Identifier",
          "type": "Char",
          "length": 50
        },
        {
          "name": "HOSEQ",
          "label": "Sequence Number",
          "type": "Num",
          "length": 8
        },
        {
          "name": "HOGRPID",
          "label": "Group ID",
          "type": "Char",
          "length": 50
        },
        {
          "name": "HOTERM",
          "label": "Healthcare Encounter Term",
          "type": "Char",
          "length": 50
        },
        {
          "name": "HOPRESP",
          "label": "Pre-Specified Healthcare Encounter",
          "type": "Char",
          "length": 50
        },
        {
          "name": "HOOCCUR",
          "label": "Healthcare Encounter Occurrence",
          "type": "Char",
          "length": 50
        },
        {
          "name": "EPOCH",
          "label": "Epoch",
          "type": "Char",
          "length": 50
        },
        {
          "name": "HOSTDTC",
          "label": "Start Date/Time of Healthcare Encounter",
          "type": "Char",
          "length": 50
        },
        {
          "name": "HOENDTC",
          "label": "End Date/Time of Healthcare Encounter",
          "type": "Char",
          "length": 50
        },
        {
          "name": "HOSTDY",
          "label": "Study Day of Start of Encounter",
          "type": "Num",
          "length": 8
        },
        {
          "name": "HOENDY",
          "label": "Study Day of End of Healthcare Encounter",
          "type": "Num",
          "length": 8
        },
        {
          "name": "HOSTRTPT",
          "label": "Start Relative to Reference Time Point",
          "type": "Char",
          "length": 50
        },
        {
          "name": "HOSTTPT",
          "label": "Start Reference Time Point",
          "type": "Char",
          "length": 50
        },
        {
          "name": "HOENRTPT",
          "label": "End Relative to Reference Time Point",
          "type": "Char",
          "length": 50
        },
        {
          "name": "HOENTPT",
          "label": "End Reference Time Point",
          "type": "Char",
          "length": 50
        }
      ],
      "records": {
        "STUDYID": [
          "CDISCPILOT01",
          "CDISCPILOT01",
          "CDISCPILOT01",
          "CDISCPILOT01",
          "CDISCPILOT01",
          "CDISCPILOT02",
          "CDISCPILOT03",
          "CDISCPILOT04",
          "CDISCPILOT05",
          "CDISCPILOT06",
          "CDISCPILOT07",
          "CDISCPILOT08"
        ],
        "DOMAIN": [
          "HO",
          "HO",
          "HO",
          "HO",
          "HO",
          "HO",
          "HO",
          "HO",
          "HO",
          "HO",
          "HO",
          "HO"
        ],
        "USUBJID": [
          "CDISC012",
          "CDISC013",
          "CDISC014",
          "CDISC016",
          "CDISC017",
          "CDISC018",
          "CDISC019",
          "CDISC020",
          "CDISC021",
          "CDISC022",
          "CDISC023",
          "CDISC024"
        ],
        "HOSEQ": [
          1,
          1,
          1,
          1,
          2,
          1,
          1,
          1,
          2,
          1,
          1,
          2
        ],
        "HOGRPID": [
          "1",
          "1",
          "1",
          "1",
          "1",
          "1",
          "1",
          "1",
          "1",
          "1",
          "1",
          "1"
        ],
        "HOTERM": [
          "HOSPITALIZATION",
          "HOSPITALIZATION",
          "HOSPITALIZATION",
          "HOSPITALIZATION",
          "INTENSIVE CARE UNIT",
          "HOSPITALIZATION",
          "HOSPITALIZATION",
          "HOSPITALIZATION",
          "INTENSIVE CARE UNIT",
          "HOSPITALIZATION",
          "HOSPITALIZATION",
          "INTENSIVE CARE UNIT"
        ],
        "HOPRESP": [
          "Y",
          "Y",
          "Y",
          "Y",
          "Y",
          "Y",
          "Y",
          "Y",
          "Y",
          "Y",
          "Y",
          "Y"
        ],
        "HOOCCUR": [
          "Y",
          "Y",
          "Y",
          "Y",
          "Y",
          "Y",
          "Y",
          "Y",
          "Y",
          "Y",
          "Y",
          "Y"
        ],
        "EPOCH": [
          "FOLLOW-UP",
          "FOLLOW-UP",
          "TREATMENT",
          "TREATMENT",
          "TREATMENT",
          "FOLLOW-UP",
          "FOLLOW-UP",
          "TREATMENT",
          "TREATMENT",
          "TREATMENT",
          "FOLLOW-UP",
          "FOLLOW-UP"
        ],
        "HOSTDTC": [
          "2018-05-15",
          "2017-09-21",
          "2020-05-08",
          "2019-04-21",
          "2019-04-22",
          "2018-08-22",
          "2017-06-05",
          "2017-01-10",
          "2017-01-10",
          "2019-09-13",
          "2017-02-07",
          "2017-02-07"
        ],
        "HOENDTC": [
          "2018-05-21",
          "2017-09-26",
          "2020-05-12",
          "2019-04-29",
          "2019-04-23",
          "2018-08-28",
          "2017-06-16",
          "2017-01-18",
          "2017-01-12",
          "2019-09-27",
          "2017-02-20",
          "2017-02-13"
        ],
        "HOSTDY": [
          350,
          107,
          1037,
          845,
          846,
          570,
          120,
          28,
          28,
          809,
          69,
          69
        ],
        "HOENDY": [
          356,
          112,
          1041,
          853,
          847,
          576,
          131,
          36,
          30,
          823,
          82,
          75
        ],
        "HOSTRTPT": [
          "BEFORE",
          "",
          "",
          "",
          "AFTER",
          "",
          "BEFORE",
          "",
          "AFTER",
          "",
          "",
          ""
        ],
        "HOSTTPT": [
          "FIRST DOSE",
          "",
          "",
          "",
          "FIRST DOSE",
          "",
          "FIRST DOSE",
          "",
          "2018-05-12",
          "",
          "",
          "2018-02-13"
        ],
        "HOENRTPT": [
          "",
          "",
          "",
          "",
          "",
          "",
          "",
          "",
          "",
          "",
          "",
          ""
        ],
        "HOENTPT": [
          "",
          "",
          "",
          "",
          "",
          "",
          "",
          "",
          "",
          "",
          "",
          ""
        ]
      }
    }
  ]
}