STUDYID,DOMAIN,USUBJID,MHSEQ,MHTERM,MHEVDTYP,MHPRESP,MHOCCUR,MHSTAT,MHREASND,MHSTDTC,MHSTDY
CDISCPILOT01,MH,CDISC001,1,ALZHEIMER'S DISEASE,SYMPTOM ONSET,Y,,NOT DONE,Unknown reason why,2004-05-28,-3108
CDISCPILOT01,MH,CDISC002,1,ALZHEIMER'S DISEASE,SYMPTOM ONSET,Y,,NOT DONE,,2010-03-19,-972
CDISCPILOT01,MH,CDISC003,1,ALZHEIMER'S DISEASE,SYMPTOM ONSET,Y,,NOT DONE,,2007-02-09,-2393
CDISCPILOT01,MH,CDISC004,1,ALZHEIMER'S DISEASE,SYMPTOM ONSET,Y,,NOT DONE,,2010-11-05,-1068
CDISCPILOT01,MH,CDISC005,1,ALZHEIMER'S DISEASE,SYMPTOM ONSET,Y,,NOT DONE,,2006-08-20,-2360
CDISCPILOT01,MH,CDISC006,1,ALZHEIMER'S DISEASE,SYMPTOM ONSET,Y,,NOT DONE,,2008-06-17,-1736
CDISCPILOT01,MH,CDISC007,1,ALZHEIMER'S DISEASE,SYMPTOM ONSET,N,,,,2008-05-21,-1690
