STUDYID,DOMAIN,USUBJID,DSSEQ,DSGRPID,DSREFID,DSSPID,DSTERM,DSDECOD,DSCAT,DSSCAT,EPOCH,DSDTC,DSSTDTC,DSDY,DSSTDY
CDISC-TEST,DS,S001,1,,,,INFORMED CONSENT OBTAINED,INFORMED CONSENT OBTAINED,PROTOCOL MILESTONE,,SCREENING,,,,
CDISC-TEST,DS,S001,2,,,,RANDOMIZED,RANDOMIZED,PROTOCOL MILESTONE,,SCREENING,,,,
CDISC-TEST,DS,S001,3,,,,COMPLETED,COMPLETED,DISPOSITION EVENT,STUDY TREATMENT A,TREATMENT,,,,
CDISC-TEST,DS,S001,4,,,,COMPLETED,COMPLETED,DISPOSITION EVENT,STUDY TREATMENT B,TREATMENT,,,,
CDISC-TEST,DS,S001,5,,,,COMPLETED,COMPLETED,DISPOSITION EVENT,STUDY PARTICIPATION,TREATMENT,,,,
CDISC-TEST,DS,S001,6,,,,COMPLETED,COMPLETED,DISPOSITION EVENT,STUDY PARTICIPATION,FOLLOW-UP,,,,
