{
    "rule": {
        "Authorities": [
            {
                "Organization": "CDISC",
                "Standards": [
                    {
                        "Name": "SDTMIG",
                        "References": [
                            {
                                "Citations": [
                                    {
                                        "Document": "IG v3.4",
                                        "Item": "3h",
                                        "Section": "2.6",
                                        "Cited_Guidance": "Use title case for all labels (title case means to capitalize the first letter of every word except for articles, prepositions, and conjunctions)."
                                    }
                                ],
                                "Origin": "SDTM and SDTMIG Conformance Rules",
                                "Version": "2.0",
                                "Rule_Identifier": {
                                    "Id": "CG0359",
                                    "Version": "1"
                                }
                            }
                        ],
                        "Version": "3.4"
                    },
                    {
                        "Name": "SDTMIG",
                        "References": [
                            {
                                "Citations": [
                                    {
                                        "Document": "IG v3.2",
                                        "Item": "3h",
                                        "Section": "2.6",
                                        "Cited_Guidance": "Use title case for all labels (title case means to capitalize the first letter of every word except for articles; prepositions; and conjunctions)."
                                    }
                                ],
                                "Origin": "SDTM and SDTMIG Conformance Rules",
                                "Version": "2.0",
                                "Rule_Identifier": {
                                    "Id": "CG0359",
                                    "Version": "1"
                                }
                            }
                        ],
                        "Version": "3.2"
                    },
                    {
                        "Name": "SDTMIG",
                        "References": [
                            {
                                "Citations": [
                                    {
                                        "Document": "IG v3.3",
                                        "Item": "3h",
                                        "Section": "2.6",
                                        "Cited_Guidance": "Use title case for all labels (title case means to capitalize the first letter of every word except for articles; prepositions; and conjunctions)."
                                    }
                                ],
                                "Origin": "SDTM and SDTMIG Conformance Rules",
                                "Version": "2.0",
                                "Rule_Identifier": {
                                    "Id": "CG0359",
                                    "Version": "1"
                                }
                            }
                        ],
                        "Version": "3.3"
                    },
                    {
                        "Name": "SENDIG",
                        "References": [
                            {
                                "Citations": [
                                    {
                                        "Document": "IG v3.0",
                                        "Section": "4.2.1",
                                        "Cited_Guidance": "Variable descriptive names (labels), up to 40 characters in title case, should be provided as data variable labels."
                                    }
                                ],
                                "Origin": "SEND Conformance Rules",
                                "Version": "5.0",
                                "Rule_Identifier": {
                                    "Id": "SEND29",
                                    "Version": "1"
                                }
                            }
                        ],
                        "Version": "3.0"
                    },
                    {
                        "Name": "SENDIG",
                        "References": [
                            {
                                "Citations": [
                                    {
                                        "Document": "IG v3.1",
                                        "Section": "4.2.1",
                                        "Cited_Guidance": "Variable descriptive names (labels), up to 40 characters in title case, should be provided as data variable labels."
                                    }
                                ],
                                "Origin": "SEND Conformance Rules",
                                "Version": "5.0",
                                "Rule_Identifier": {
                                    "Id": "SEND29",
                                    "Version": "1"
                                }
                            }
                        ],
                        "Version": "3.1"
                    },
                    {
                        "Name": "SENDIG",
                        "References": [
                            {
                                "Citations": [
                                    {
                                        "Document": "IG v3.1.1",
                                        "Section": "4.2.1",
                                        "Cited_Guidance": "Variable descriptive names (labels), up to 40 characters in title case, should be provided as data variable labels."
                                    }
                                ],
                                "Origin": "SEND Conformance Rules",
                                "Version": "5.0",
                                "Rule_Identifier": {
                                    "Id": "SEND29",
                                    "Version": "1"
                                }
                            }
                        ],
                        "Version": "3.1.1"
                    },
                    {
                        "Name": "SENDIG-DART",
                        "References": [
                            {
                                "Citations": [
                                    {
                                        "Document": "IG v3.1",
                                        "Section": "4.2.1",
                                        "Cited_Guidance": "Variable descriptive names (labels), up to 40 characters in title case, should be provided as data variable labels."
                                    }
                                ],
                                "Origin": "SEND Conformance Rules",
                                "Version": "5.0",
                                "Rule_Identifier": {
                                    "Id": "SEND29",
                                    "Version": "1"
                                }
                            }
                        ],
                        "Version": "1.1"
                    },
                    {
                        "Name": "SENDIG-DART",
                        "References": [
                            {
                                "Citations": [
                                    {
                                        "Document": "IG v3.1.1",
                                        "Section": "4.2.1",
                                        "Cited_Guidance": "Variable descriptive names (labels), up to 40 characters in title case, should be provided as data variable labels."
                                    }
                                ],
                                "Origin": "SEND Conformance Rules",
                                "Version": "5.0",
                                "Rule_Identifier": {
                                    "Id": "SEND29",
                                    "Version": "1"
                                }
                            }
                        ],
                        "Version": "1.2"
                    },
                    {
                        "Name": "SENDIG-GENETOX",
                        "References": [
                            {
                                "Citations": [
                                    {
                                        "Document": "IG v3.1.1",
                                        "Section": "4.2.1",
                                        "Cited_Guidance": "Variable descriptive names (labels), up to 40 characters in title case, should be provided as data variable labels."
                                    }
                                ],
                                "Origin": "SEND Conformance Rules",
                                "Version": "5.0",
                                "Rule_Identifier": {
                                    "Id": "SEND29",
                                    "Version": "1"
                                }
                            }
                        ],
                        "Version": "1.0"
                    }
                ]
            }
        ],
        "Check": {
            "all": [
                {
                    "name": "variable_label",
                    "operator": "not_matches_regex",
                    "value": "^\\s*[A-Z]\\S*\\s*((a|an|the|and|per|to|but|or|for|in|of|on|with|([A-Z]\\S*))\\s*)*$"
                }
            ]
        },
        "Core": {
            "Id": "CDISC.SDTMIG.CG0359",
            "Status": "Draft",
            "Version": "1"
        },
        "Description": "Raise an error when a variable label is not in title case",
        "Executability": "Fully Executable",
        "Outcome": {
            "Message": "Variable label is not in title case."
        },
        "Scope": {
            "Classes": {
                "Include": [
                    "ALL"
                ]
            },
            "Domains": {
                "Include": [
                    "ALL"
                ]
            }
        },
        "Sensitivity": "Record",
        "Rule_Type": "Variable Metadata Check"
    },
    "datasets": [
        {
            "filename": "ae.xpt",
            "label": "Adverse Events",
            "domain": "AE",
            "variables": [
                {
                    "name": "STUDYID",
                    "label": "Study Identifier",
                    "type": "Char",
                    "length": 10
                },
                {
                    "name": "DOMAIN",
                    "label": "Domain Abbreviation",
                    "type": "Char",
                    "length": 2
                },
                {
                    "name": "USUBJID",
                    "label": "Unique Subject Identifier",
                    "type": "Char",
                    "length": 14
                },
                {
                    "name": "AESEQ",
                    "label": "Sequence Number",
                    "type": "Num",
                    "length": 8
                },
                {
                    "name": "AESPID",
                    "label": "Sponsor-Defined Identifier",
                    "type": "Char",
                    "length": 4
                },
                {
                    "name": "AETERM",
                    "label": "Reported Term for the Adverse Event",
                    "type": "Char",
                    "length": 38
                },
                {
                    "name": "AELLT",
                    "label": "Lowest Level Term",
                    "type": "Char",
                    "length": 38
                },
                {
                    "name": "AELLTCD",
                    "label": "Lowest Level Term Code",
                    "type": "Num",
                    "length": 8
                },
                {
                    "name": "AEDECOD",
                    "label": "Dictionary-Derived Term",
                    "type": "Char",
                    "length": 38
                },
                {
                    "name": "AEPTCD",
                    "label": "Preferred Term Code",
                    "type": "Num",
                    "length": 8
                },
                {
                    "name": "AEHLT",
                    "label": "High Level Term",
                    "type": "Char",
                    "length": 65
                },
                {
                    "name": "AEHLTCD",
                    "label": "High Level Term Code",
                    "type": "Num",
                    "length": 8
                },
                {
                    "name": "AEHLGT",
                    "label": "High Level Group Term",
                    "type": "Char",
                    "length": 55
                },
                {
                    "name": "AEHLGTCD",
                    "label": "High Level Group Term Code",
                    "type": "Num",
                    "length": 8
                },
                {
                    "name": "AEBODSYS",
                    "label": "Body System or Organ Class",
                    "type": "Char",
                    "length": 52
                },
                {
                    "name": "AEBDSYCD",
                    "label": "Body System or Organ Class Code",
                    "type": "Num",
                    "length": 8
                },
                {
                    "name": "AESOC",
                    "label": "Primary System Organ Class",
                    "type": "Char",
                    "length": 52
                },
                {
                    "name": "AESOCCD",
                    "label": "Primary System Organ Class Code",
                    "type": "Num",
                    "length": 8
                },
                {
                    "name": "AESEV",
                    "label": "Severity/Intensity",
                    "type": "Char",
                    "length": 8
                },
                {
                    "name": "AESER",
                    "label": "Serious Event",
                    "type": "Char",
                    "length": 1
                },
                {
                    "name": "AEACN",
                    "label": "Action Taken with Study Treatment",
                    "type": "Char",
                    "length": 1
                },
                {
                    "name": "AEREL",
                    "label": "Causality",
                    "type": "Char",
                    "length": 1
                },
                {
                    "name": "AEOUT",
                    "label": "Outcome of Adverse Event",
                    "type": "Char",
                    "length": 26
                },
                {
                    "name": "AESHOSP",
                    "label": "Requires or Prolongs Hospitalization",
                    "type": "Char",
                    "length": 1
                },
                {
                    "name": "AEREASND",
                    "label": "Reason Note Done",
                    "type": "Char",
                    "length": 200
                },
                {
                    "name": "AESTDTC",
                    "label": "Start Date/Time of Adverse Event",
                    "type": "Char",
                    "length": 10
                },
                {
                    "name": "AEENDTC",
                    "label": "End Date/Time of Adverse Event",
                    "type": "Char",
                    "length": 1
                },
                {
                    "name": "AESTDY",
                    "label": "Study Day of Start of Adverse Event",
                    "type": "Num",
                    "length": 8
                }
            ],
            "records": {
                "STUDYID": [
                    "CDISC-TEST",
                    "CDISC-TEST",
                    "CDISC-TEST",
                    "CDISC-TEST",
                    "CDISC-TEST",
                    "CDISC-TEST",
                    "CDISC-TEST",
                    "CDISC-TEST",
                    "CDISC-TEST",
                    "CDISC-TEST",
                    "CDISC-TEST",
                    "CDISC-TEST",
                    "CDISC-TEST",
                    "CDISC-TEST",
                    "CDISC-TEST",
                    "CDISC-TEST",
                    "CDISC-TEST",
                    "CDISC-TEST",
                    "CDISC-TEST",
                    "CDISC-TEST",
                    "CDISC-TEST",
                    "CDISC-TEST",
                    "CDISC-TEST",
                    "CDISC-TEST",
                    "CDISC-TEST",
                    "CDISC-TEST",
                    "CDISC-TEST",
                    "CDISC-TEST",
                    "CDISC-TEST",
                    "CDISC-TEST",
                    "CDISC-TEST",
                    "CDISC-TEST",
                    "CDISC-TEST",
                    "CDISC-TEST",
                    "CDISC-TEST",
                    "CDISC-TEST",
                    "CDISC-TEST",
                    "CDISC-TEST",
                    "CDISC-TEST",
                    "CDISC-TEST",
                    "CDISC-TEST",
                    "CDISC-TEST",
                    "CDISC-TEST",
                    "CDISC-TEST",
                    "CDISC-TEST",
                    "CDISC-TEST",
                    "CDISC-TEST",
                    "CDISC-TEST",
                    "CDISC-TEST",
                    "CDISC-TEST",
                    "CDISC-TEST",
                    "CDISC-TEST",
                    "CDISC-TEST",
                    "CDISC-TEST",
                    "CDISC-TEST",
                    "CDISC-TEST",
                    "CDISC-TEST",
                    "CDISC-TEST",
                    "CDISC-TEST",
                    "CDISC-TEST",
                    "CDISC-TEST",
                    "CDISC-TEST",
                    "CDISC-TEST",
                    "CDISC-TEST",
                    "CDISC-TEST",
                    "CDISC-TEST",
                    "CDISC-TEST",
                    "CDISC-TEST",
                    "CDISC-TEST",
                    "CDISC-TEST",
                    "CDISC-TEST",
                    "CDISC-TEST",
                    "CDISC-TEST",
                    "CDISC-TEST",
                    "CDISC-TEST",
                    "CDISC-TEST",
                    "CDISC-TEST",
                    "CDISC-TEST",
                    "CDISC-TEST",
                    "CDISC-TEST",
                    "CDISC-TEST",
                    "CDISC-TEST",
                    "CDISC-TEST",
                    "CDISC-TEST",
                    "CDISC-TEST",
                    "CDISC-TEST",
                    "CDISC-TEST",
                    "CDISC-TEST",
                    "CDISC-TEST",
                    "CDISC-TEST",
                    "CDISC-TEST",
                    "CDISC-TEST",
                    "CDISC-TEST",
                    "CDISC-TEST",
                    "CDISC-TEST",
                    "CDISC-TEST",
                    "CDISC-TEST",
                    "CDISC-TEST",
                    "CDISC-TEST",
                    "CDISC-TEST",
                    "CDISC-TEST",
                    "CDISC-TEST",
                    "CDISC-TEST",
                    "CDISC-TEST",
                    "CDISC-TEST",
                    "CDISC-TEST",
                    "CDISC-TEST",
                    "CDISC-TEST",
                    "CDISC-TEST",
                    "CDISC-TEST",
                    "CDISC-TEST",
                    "CDISC-TEST",
                    "CDISC-TEST",
                    "CDISC-TEST",
                    "CDISC-TEST",
                    "CDISC-TEST",
                    "CDISC-TEST",
                    "CDISC-TEST",
                    "CDISC-TEST",
                    "CDISC-TEST",
                    "CDISC-TEST",
                    "CDISC-TEST",
                    "CDISC-TEST",
                    "CDISC-TEST",
                    "CDISC-TEST",
                    "CDISC-TEST",
                    "CDISC-TEST",
                    "CDISC-TEST",
                    "CDISC-TEST",
                    "CDISC-TEST",
                    "CDISC-TEST",
                    "CDISC-TEST",
                    "CDISC-TEST",
                    "CDISC-TEST",
                    "CDISC-TEST",
                    "CDISC-TEST",
                    "CDISC-TEST",
                    "CDISC-TEST",
                    "CDISC-TEST",
                    "CDISC-TEST",
                    "CDISC-TEST",
                    "CDISC-TEST",
                    "CDISC-TEST",
                    "CDISC-TEST",
                    "CDISC-TEST",
                    "CDISC-TEST",
                    "CDISC-TEST",
                    "CDISC-TEST",
                    "CDISC-TEST",
                    "CDISC-TEST",
                    "CDISC-TEST",
                    "CDISC-TEST",
                    "CDISC-TEST",
                    "CDISC-TEST",
                    "CDISC-TEST",
                    "CDISC-TEST",
                    "CDISC-TEST",
                    "CDISC-TEST",
                    "CDISC-TEST",
                    "CDISC-TEST",
                    "CDISC-TEST",
                    "CDISC-TEST",
                    "CDISC-TEST",
                    "CDISC-TEST",
                    "CDISC-TEST",
                    "CDISC-TEST",
                    "CDISC-TEST",
                    "CDISC-TEST",
                    "CDISC-TEST",
                    "CDISC-TEST",
                    "CDISC-TEST",
                    "CDISC-TEST",
                    "CDISC-TEST",
                    "CDISC-TEST",
                    "CDISC-TEST",
                    "CDISC-TEST",
                    "CDISC-TEST",
                    "CDISC-TEST",
                    "CDISC-TEST",
                    "CDISC-TEST",
                    "CDISC-TEST",
                    "CDISC-TEST",
                    "CDISC-TEST",
                    "CDISC-TEST",
                    "CDISC-TEST",
                    "CDISC-TEST",
                    "CDISC-TEST",
                    "CDISC-TEST",
                    "CDISC-TEST",
                    "CDISC-TEST",
                    "CDISC-TEST",
                    "CDISC-TEST",
                    "CDISC-TEST",
                    "CDISC-TEST",
                    "CDISC-TEST",
                    "CDISC-TEST",
                    "CDISC-TEST",
                    "CDISC-TEST",
                    "CDISC-TEST",
                    "CDISC-TEST",
                    "CDISC-TEST",
                    "CDISC-TEST",
                    "CDISC-TEST",
                    "CDISC-TEST",
                    "CDISC-TEST",
                    "CDISC-TEST",
                    "CDISC-TEST",
                    "CDISC-TEST",
                    "CDISC-TEST",
                    "CDISC-TEST",
                    "CDISC-TEST",
                    "CDISC-TEST",
                    "CDISC-TEST",
                    "CDISC-TEST",
                    "CDISC-TEST",
                    "CDISC-TEST",
                    "CDISC-TEST",
                    "CDISC-TEST",
                    "CDISC-TEST",
                    "CDISC-TEST",
                    "CDISC-TEST",
                    "CDISC-TEST",
                    "CDISC-TEST",
                    "CDISC-TEST",
                    "CDISC-TEST",
                    "CDISC-TEST",
                    "CDISC-TEST",
                    "CDISC-TEST",
                    "CDISC-TEST",
                    "CDISC-TEST",
                    "CDISC-TEST",
                    "CDISC-TEST",
                    "CDISC-TEST",
                    "CDISC-TEST",
                    "CDISC-TEST",
                    "CDISC-TEST",
                    "CDISC-TEST",
                    "CDISC-TEST",
                    "CDISC-TEST",
                    "CDISC-TEST",
                    "CDISC-TEST",
                    "CDISC-TEST",
                    "CDISC-TEST",
                    "CDISC-TEST",
                    "CDISC-TEST",
                    "CDISC-TEST",
                    "CDISC-TEST",
                    "CDISC-TEST",
                    "CDISC-TEST",
                    "CDISC-TEST",
                    "CDISC-TEST",
                    "CDISC-TEST",
                    "CDISC-TEST",
                    "CDISC-TEST",
                    "CDISC-TEST",
                    "CDISC-TEST",
                    "CDISC-TEST",
                    "CDISC-TEST",
                    "CDISC-TEST",
                    "CDISC-TEST",
                    "CDISC-TEST",
                    "CDISC-TEST",
                    "CDISC-TEST",
                    "CDISC-TEST",
                    "CDISC-TEST",
                    "CDISC-TEST",
                    "CDISC-TEST",
                    "CDISC-TEST",
                    "CDISC-TEST",
                    "CDISC-TEST",
                    "CDISC-TEST",
                    "CDISC-TEST",
                    "CDISC-TEST",
                    "CDISC-TEST",
                    "CDISC-TEST",
                    "CDISC-TEST",
                    "CDISC-TEST",
                    "CDISC-TEST",
                    "CDISC-TEST",
                    "CDISC-TEST",
                    "CDISC-TEST",
                    "CDISC-TEST",
                    "CDISC-TEST",
                    "CDISC-TEST",
                    "CDISC-TEST",
                    "CDISC-TEST",
                    "CDISC-TEST",
                    "CDISC-TEST",
                    "CDISC-TEST",
                    "CDISC-TEST",
                    "CDISC-TEST",
                    "CDISC-TEST",
                    "CDISC-TEST",
                    "CDISC-TEST",
                    "CDISC-TEST",
                    "CDISC-TEST",
                    "CDISC-TEST",
                    "CDISC-TEST",
                    "CDISC-TEST",
                    "CDISC-TEST",
                    "CDISC-TEST",
                    "CDISC-TEST",
                    "CDISC-TEST",
                    "CDISC-TEST",
                    "CDISC-TEST",
                    "CDISC-TEST",
                    "CDISC-TEST",
                    "CDISC-TEST",
                    "CDISC-TEST",
                    "CDISC-TEST",
                    "CDISC-TEST",
                    "CDISC-TEST",
                    "CDISC-TEST",
                    "CDISC-TEST",
                    "CDISC-TEST",
                    "CDISC-TEST",
                    "CDISC-TEST",
                    "CDISC-TEST",
                    "CDISC-TEST",
                    "CDISC-TEST",
                    "CDISC-TEST",
                    "CDISC-TEST",
                    "CDISC-TEST",
                    "CDISC-TEST",
                    "CDISC-TEST",
                    "CDISC-TEST",
                    "CDISC-TEST",
                    "CDISC-TEST",
                    "CDISC-TEST",
                    "CDISC-TEST",
                    "CDISC-TEST",
                    "CDISC-TEST",
                    "CDISC-TEST",
                    "CDISC-TEST",
                    "CDISC-TEST",
                    "CDISC-TEST",
                    "CDISC-TEST",
                    "CDISC-TEST",
                    "CDISC-TEST",
                    "CDISC-TEST",
                    "CDISC-TEST",
                    "CDISC-TEST",
                    "CDISC-TEST",
                    "CDISC-TEST",
                    "CDISC-TEST",
                    "CDISC-TEST",
                    "CDISC-TEST",
                    "CDISC-TEST",
                    "CDISC-TEST",
                    "CDISC-TEST",
                    "CDISC-TEST",
                    "CDISC-TEST",
                    "CDISC-TEST",
                    "CDISC-TEST",
                    "CDISC-TEST",
                    "CDISC-TEST",
                    "CDISC-TEST",
                    "CDISC-TEST",
                    "CDISC-TEST",
                    "CDISC-TEST",
                    "CDISC-TEST",
                    "CDISC-TEST",
                    "CDISC-TEST",
                    "CDISC-TEST",
                    "CDISC-TEST",
                    "CDISC-TEST",
                    "CDISC-TEST",
                    "CDISC-TEST",
                    "CDISC-TEST",
                    "CDISC-TEST",
                    "CDISC-TEST",
                    "CDISC-TEST",
                    "CDISC-TEST",
                    "CDISC-TEST",
                    "CDISC-TEST",
                    "CDISC-TEST",
                    "CDISC-TEST",
                    "CDISC-TEST",
                    "CDISC-TEST",
                    "CDISC-TEST",
                    "CDISC-TEST",
                    "CDISC-TEST",
                    "CDISC-TEST",
                    "CDISC-TEST",
                    "CDISC-TEST",
                    "CDISC-TEST",
                    "CDISC-TEST",
                    "CDISC-TEST",
                    "CDISC-TEST",
                    "CDISC-TEST",
                    "CDISC-TEST",
                    "CDISC-TEST",
                    "CDISC-TEST",
                    "CDISC-TEST",
                    "CDISC-TEST",
                    "CDISC-TEST",
                    "CDISC-TEST",
                    "CDISC-TEST",
                    "CDISC-TEST",
                    "CDISC-TEST",
                    "CDISC-TEST",
                    "CDISC-TEST",
                    "CDISC-TEST",
                    "CDISC-TEST",
                    "CDISC-TEST",
                    "CDISC-TEST",
                    "CDISC-TEST",
                    "CDISC-TEST",
                    "CDISC-TEST",
                    "CDISC-TEST",
                    "CDISC-TEST",
                    "CDISC-TEST",
                    "CDISC-TEST",
                    "CDISC-TEST",
                    "CDISC-TEST",
                    "CDISC-TEST",
                    "CDISC-TEST",
                    "CDISC-TEST",
                    "CDISC-TEST",
                    "CDISC-TEST",
                    "CDISC-TEST",
                    "CDISC-TEST",
                    "CDISC-TEST",
                    "CDISC-TEST",
                    "CDISC-TEST",
                    "CDISC-TEST",
                    "CDISC-TEST",
                    "CDISC-TEST",
                    "CDISC-TEST",
                    "CDISC-TEST",
                    "CDISC-TEST",
                    "CDISC-TEST",
                    "CDISC-TEST",
                    "CDISC-TEST",
                    "CDISC-TEST",
                    "CDISC-TEST",
                    "CDISC-TEST",
                    "CDISC-TEST",
                    "CDISC-TEST",
                    "CDISC-TEST",
                    "CDISC-TEST",
                    "CDISC-TEST",
                    "CDISC-TEST",
                    "CDISC-TEST",
                    "CDISC-TEST",
                    "CDISC-TEST",
                    "CDISC-TEST",
                    "CDISC-TEST",
                    "CDISC-TEST",
                    "CDISC-TEST",
                    "CDISC-TEST",
                    "CDISC-TEST",
                    "CDISC-TEST",
                    "CDISC-TEST",
                    "CDISC-TEST",
                    "CDISC-TEST",
                    "CDISC-TEST",
                    "CDISC-TEST",
                    "CDISC-TEST",
                    "CDISC-TEST",
                    "CDISC-TEST",
                    "CDISC-TEST",
                    "CDISC-TEST",
                    "CDISC-TEST",
                    "CDISC-TEST",
                    "CDISC-TEST",
                    "CDISC-TEST",
                    "CDISC-TEST",
                    "CDISC-TEST",
                    "CDISC-TEST",
                    "CDISC-TEST",
                    "CDISC-TEST",
                    "CDISC-TEST",
                    "CDISC-TEST",
                    "CDISC-TEST",
                    "CDISC-TEST",
                    "CDISC-TEST",
                    "CDISC-TEST",
                    "CDISC-TEST",
                    "CDISC-TEST",
                    "CDISC-TEST",
                    "CDISC-TEST",
                    "CDISC-TEST",
                    "CDISC-TEST",
                    "CDISC-TEST",
                    "CDISC-TEST",
                    "CDISC-TEST",
                    "CDISC-TEST",
                    "CDISC-TEST",
                    "CDISC-TEST",
                    "CDISC-TEST",
                    "CDISC-TEST",
                    "CDISC-TEST",
                    "CDISC-TEST",
                    "CDISC-TEST",
                    "CDISC-TEST",
                    "CDISC-TEST",
                    "CDISC-TEST",
                    "CDISC-TEST",
                    "CDISC-TEST",
                    "CDISC-TEST",
                    "CDISC-TEST",
                    "CDISC-TEST",
                    "CDISC-TEST",
                    "CDISC-TEST",
                    "CDISC-TEST",
                    "CDISC-TEST",
                    "CDISC-TEST",
                    "CDISC-TEST",
                    "CDISC-TEST",
                    "CDISC-TEST",
                    "CDISC-TEST",
                    "CDISC-TEST",
                    "CDISC-TEST",
                    "CDISC-TEST",
                    "CDISC-TEST",
                    "CDISC-TEST",
                    "CDISC-TEST",
                    "CDISC-TEST",
                    "CDISC-TEST",
                    "CDISC-TEST",
                    "CDISC-TEST",
                    "CDISC-TEST",
                    "CDISC-TEST",
                    "CDISC-TEST",
                    "CDISC-TEST",
                    "CDISC-TEST",
                    "CDISC-TEST",
                    "CDISC-TEST",
                    "CDISC-TEST",
                    "CDISC-TEST",
                    "CDISC-TEST",
                    "CDISC-TEST",
                    "CDISC-TEST",
                    "CDISC-TEST",
                    "CDISC-TEST",
                    "CDISC-TEST",
                    "CDISC-TEST",
                    "CDISC-TEST",
                    "CDISC-TEST",
                    "CDISC-TEST",
                    "CDISC-TEST",
                    "CDISC-TEST",
                    "CDISC-TEST",
                    "CDISC-TEST",
                    "CDISC-TEST",
                    "CDISC-TEST",
                    "CDISC-TEST",
                    "CDISC-TEST",
                    "CDISC-TEST",
                    "CDISC-TEST",
                    "CDISC-TEST",
                    "CDISC-TEST",
                    "CDISC-TEST",
                    "CDISC-TEST",
                    "CDISC-TEST",
                    "CDISC-TEST",
                    "CDISC-TEST",
                    "CDISC-TEST",
                    "CDISC-TEST",
                    "CDISC-TEST",
                    "CDISC-TEST",
                    "CDISC-TEST",
                    "CDISC-TEST",
                    "CDISC-TEST",
                    "CDISC-TEST",
                    "CDISC-TEST",
                    "CDISC-TEST",
                    "CDISC-TEST",
                    "CDISC-TEST",
                    "CDISC-TEST",
                    "CDISC-TEST",
                    "CDISC-TEST",
                    "CDISC-TEST",
                    "CDISC-TEST",
                    "CDISC-TEST",
                    "CDISC-TEST",
                    "CDISC-TEST",
                    "CDISC-TEST",
                    "CDISC-TEST",
                    "CDISC-TEST",
                    "CDISC-TEST",
                    "CDISC-TEST",
                    "CDISC-TEST",
                    "CDISC-TEST",
                    "CDISC-TEST",
                    "CDISC-TEST",
                    "CDISC-TEST",
                    "CDISC-TEST",
                    "CDISC-TEST",
                    "CDISC-TEST",
                    "CDISC-TEST",
                    "CDISC-TEST",
                    "CDISC-TEST",
                    "CDISC-TEST",
                    "CDISC-TEST",
                    "CDISC-TEST",
                    "CDISC-TEST",
                    "CDISC-TEST",
                    "CDISC-TEST",
                    "CDISC-TEST",
                    "CDISC-TEST",
                    "CDISC-TEST",
                    "CDISC-TEST",
                    "CDISC-TEST",
                    "CDISC-TEST",
                    "CDISC-TEST",
                    "CDISC-TEST",
                    "CDISC-TEST",
                    "CDISC-TEST",
                    "CDISC-TEST",
                    "CDISC-TEST",
                    "CDISC-TEST",
                    "CDISC-TEST",
                    "CDISC-TEST",
                    "CDISC-TEST",
                    "CDISC-TEST",
                    "CDISC-TEST",
                    "CDISC-TEST",
                    "CDISC-TEST",
                    "CDISC-TEST",
                    "CDISC-TEST",
                    "CDISC-TEST",
                    "CDISC-TEST",
                    "CDISC-TEST",
                    "CDISC-TEST",
                    "CDISC-TEST",
                    "CDISC-TEST",
                    "CDISC-TEST",
                    "CDISC-TEST",
                    "CDISC-TEST",
                    "CDISC-TEST",
                    "CDISC-TEST",
                    "CDISC-TEST",
                    "CDISC-TEST",
                    "CDISC-TEST",
                    "CDISC-TEST",
                    "CDISC-TEST",
                    "CDISC-TEST",
                    "CDISC-TEST",
                    "CDISC-TEST",
                    "CDISC-TEST",
                    "CDISC-TEST",
                    "CDISC-TEST",
                    "CDISC-TEST",
                    "CDISC-TEST",
                    "CDISC-TEST",
                    "CDISC-TEST",
                    "CDISC-TEST",
                    "CDISC-TEST",
                    "CDISC-TEST",
                    "CDISC-TEST",
                    "CDISC-TEST",
                    "CDISC-TEST",
                    "CDISC-TEST",
                    "CDISC-TEST",
                    "CDISC-TEST",
                    "CDISC-TEST",
                    "CDISC-TEST",
                    "CDISC-TEST",
                    "CDISC-TEST",
                    "CDISC-TEST",
                    "CDISC-TEST",
                    "CDISC-TEST",
                    "CDISC-TEST",
                    "CDISC-TEST",
                    "CDISC-TEST",
                    "CDISC-TEST",
                    "CDISC-TEST",
                    "CDISC-TEST",
                    "CDISC-TEST",
                    "CDISC-TEST",
                    "CDISC-TEST",
                    "CDISC-TEST",
                    "CDISC-TEST",
                    "CDISC-TEST",
                    "CDISC-TEST",
                    "CDISC-TEST",
                    "CDISC-TEST",
                    "CDISC-TEST",
                    "CDISC-TEST",
                    "CDISC-TEST",
                    "CDISC-TEST",
                    "CDISC-TEST",
                    "CDISC-TEST",
                    "CDISC-TEST",
                    "CDISC-TEST",
                    "CDISC-TEST",
                    "CDISC-TEST",
                    "CDISC-TEST",
                    "CDISC-TEST",
                    "CDISC-TEST",
                    "CDISC-TEST",
                    "CDISC-TEST",
                    "CDISC-TEST",
                    "CDISC-TEST",
                    "CDISC-TEST",
                    "CDISC-TEST",
                    "CDISC-TEST",
                    "CDISC-TEST",
                    "CDISC-TEST",
                    "CDISC-TEST",
                    "CDISC-TEST",
                    "CDISC-TEST",
                    "CDISC-TEST",
                    "CDISC-TEST",
                    "CDISC-TEST",
                    "CDISC-TEST",
                    "CDISC-TEST",
                    "CDISC-TEST",
                    "CDISC-TEST",
                    "CDISC-TEST",
                    "CDISC-TEST",
                    "CDISC-TEST",
                    "CDISC-TEST",
                    "CDISC-TEST",
                    "CDISC-TEST",
                    "CDISC-TEST",
                    "CDISC-TEST",
                    "CDISC-TEST",
                    "CDISC-TEST",
                    "CDISC-TEST",
                    "CDISC-TEST",
                    "CDISC-TEST",
                    "CDISC-TEST",
                    "CDISC-TEST",
                    "CDISC-TEST",
                    "CDISC-TEST",
                    "CDISC-TEST",
                    "CDISC-TEST",
                    "CDISC-TEST",
                    "CDISC-TEST",
                    "CDISC-TEST",
                    "CDISC-TEST",
                    "CDISC-TEST",
                    "CDISC-TEST",
                    "CDISC-TEST",
                    "CDISC-TEST",
                    "CDISC-TEST",
                    "CDISC-TEST",
                    "CDISC-TEST",
                    "CDISC-TEST",
                    "CDISC-TEST",
                    "CDISC-TEST",
                    "CDISC-TEST",
                    "CDISC-TEST",
                    "CDISC-TEST",
                    "CDISC-TEST",
                    "CDISC-TEST",
                    "CDISC-TEST",
                    "CDISC-TEST",
                    "CDISC-TEST",
                    "CDISC-TEST",
                    "CDISC-TEST",
                    "CDISC-TEST",
                    "CDISC-TEST",
                    "CDISC-TEST",
                    "CDISC-TEST",
                    "CDISC-TEST",
                    "CDISC-TEST",
                    "CDISC-TEST",
                    "CDISC-TEST",
                    "CDISC-TEST",
                    "CDISC-TEST",
                    "CDISC-TEST",
                    "CDISC-TEST",
                    "CDISC-TEST",
                    "CDISC-TEST",
                    "CDISC-TEST",
                    "CDISC-TEST",
                    "CDISC-TEST",
                    "CDISC-TEST",
                    "CDISC-TEST",
                    "CDISC-TEST",
                    "CDISC-TEST",
                    "CDISC-TEST",
                    "CDISC-TEST",
                    "CDISC-TEST",
                    "CDISC-TEST",
                    "CDISC-TEST",
                    "CDISC-TEST",
                    "CDISC-TEST",
                    "CDISC-TEST",
                    "CDISC-TEST",
                    "CDISC-TEST",
                    "CDISC-TEST",
                    "CDISC-TEST",
                    "CDISC-TEST",
                    "CDISC-TEST",
                    "CDISC-TEST",
                    "CDISC-TEST",
                    "CDISC-TEST",
                    "CDISC-TEST",
                    "CDISC-TEST",
                    "CDISC-TEST",
                    "CDISC-TEST",
                    "CDISC-TEST",
                    "CDISC-TEST",
                    "CDISC-TEST",
                    "CDISC-TEST",
                    "CDISC-TEST",
                    "CDISC-TEST",
                    "CDISC-TEST",
                    "CDISC-TEST",
                    "CDISC-TEST",
                    "CDISC-TEST",
                    "CDISC-TEST",
                    "CDISC-TEST",
                    "CDISC-TEST",
                    "CDISC-TEST",
                    "CDISC-TEST",
                    "CDISC-TEST",
                    "CDISC-TEST",
                    "CDISC-TEST",
                    "CDISC-TEST",
                    "CDISC-TEST",
                    "CDISC-TEST",
                    "CDISC-TEST",
                    "CDISC-TEST",
                    "CDISC-TEST",
                    "CDISC-TEST",
                    "CDISC-TEST",
                    "CDISC-TEST",
                    "CDISC-TEST",
                    "CDISC-TEST",
                    "CDISC-TEST",
                    "CDISC-TEST",
                    "CDISC-TEST",
                    "CDISC-TEST",
                    "CDISC-TEST",
                    "CDISC-TEST",
                    "CDISC-TEST",
                    "CDISC-TEST",
                    "CDISC-TEST",
                    "CDISC-TEST",
                    "CDISC-TEST",
                    "CDISC-TEST",
                    "CDISC-TEST",
                    "CDISC-TEST",
                    "CDISC-TEST",
                    "CDISC-TEST",
                    "CDISC-TEST",
                    "CDISC-TEST",
                    "CDISC-TEST",
                    "CDISC-TEST",
                    "CDISC-TEST",
                    "CDISC-TEST",
                    "CDISC-TEST",
                    "CDISC-TEST",
                    "CDISC-TEST",
                    "CDISC-TEST",
                    "CDISC-TEST",
                    "CDISC-TEST",
                    "CDISC-TEST",
                    "CDISC-TEST",
                    "CDISC-TEST",
                    "CDISC-TEST",
                    "CDISC-TEST",
                    "CDISC-TEST",
                    "CDISC-TEST",
                    "CDISC-TEST",
                    "CDISC-TEST",
                    "CDISC-TEST",
                    "CDISC-TEST",
                    "CDISC-TEST",
                    "CDISC-TEST",
                    "CDISC-TEST",
                    "CDISC-TEST",
                    "CDISC-TEST",
                    "CDISC-TEST",
                    "CDISC-TEST",
                    "CDISC-TEST",
                    "CDISC-TEST",
                    "CDISC-TEST",
                    "CDISC-TEST",
                    "CDISC-TEST",
                    "CDISC-TEST",
                    "CDISC-TEST",
                    "CDISC-TEST",
                    "CDISC-TEST",
                    "CDISC-TEST",
                    "CDISC-TEST",
                    "CDISC-TEST",
                    "CDISC-TEST",
                    "CDISC-TEST",
                    "CDISC-TEST",
                    "CDISC-TEST",
                    "CDISC-TEST",
                    "CDISC-TEST",
                    "CDISC-TEST",
                    "CDISC-TEST",
                    "CDISC-TEST",
                    "CDISC-TEST",
                    "CDISC-TEST",
                    "CDISC-TEST",
                    "CDISC-TEST",
                    "CDISC-TEST",
                    "CDISC-TEST",
                    "CDISC-TEST",
                    "CDISC-TEST",
                    "CDISC-TEST",
                    "CDISC-TEST",
                    "CDISC-TEST",
                    "CDISC-TEST",
                    "CDISC-TEST",
                    "CDISC-TEST",
                    "CDISC-TEST",
                    "CDISC-TEST",
                    "CDISC-TEST",
                    "CDISC-TEST",
                    "CDISC-TEST",
                    "CDISC-TEST",
                    "CDISC-TEST",
                    "CDISC-TEST",
                    "CDISC-TEST",
                    "CDISC-TEST",
                    "CDISC-TEST",
                    "CDISC-TEST",
                    "CDISC-TEST",
                    "CDISC-TEST",
                    "CDISC-TEST",
                    "CDISC-TEST",
                    "CDISC-TEST",
                    "CDISC-TEST",
                    "CDISC-TEST",
                    "CDISC-TEST",
                    "CDISC-TEST",
                    "CDISC-TEST",
                    "CDISC-TEST",
                    "CDISC-TEST",
                    "CDISC-TEST",
                    "CDISC-TEST",
                    "CDISC-TEST",
                    "CDISC-TEST",
                    "CDISC-TEST",
                    "CDISC-TEST",
                    "CDISC-TEST",
                    "CDISC-TEST",
                    "CDISC-TEST",
                    "CDISC-TEST",
                    "CDISC-TEST",
                    "CDISC-TEST",
                    "CDISC-TEST",
                    "CDISC-TEST",
                    "CDISC-TEST",
                    "CDISC-TEST",
                    "CDISC-TEST",
                    "CDISC-TEST",
                    "CDISC-TEST",
                    "CDISC-TEST",
                    "CDISC-TEST",
                    "CDISC-TEST",
                    "CDISC-TEST",
                    "CDISC-TEST",
                    "CDISC-TEST",
                    "CDISC-TEST",
                    "CDISC-TEST",
                    "CDISC-TEST",
                    "CDISC-TEST",
                    "CDISC-TEST",
                    "CDISC-TEST",
                    "CDISC-TEST",
                    "CDISC-TEST",
                    "CDISC-TEST",
                    "CDISC-TEST",
                    "CDISC-TEST",
                    "CDISC-TEST",
                    "CDISC-TEST",
                    "CDISC-TEST",
                    "CDISC-TEST",
                    "CDISC-TEST",
                    "CDISC-TEST",
                    "CDISC-TEST",
                    "CDISC-TEST",
                    "CDISC-TEST",
                    "CDISC-TEST",
                    "CDISC-TEST",
                    "CDISC-TEST",
                    "CDISC-TEST",
                    "CDISC-TEST",
                    "CDISC-TEST",
                    "CDISC-TEST",
                    "CDISC-TEST",
                    "CDISC-TEST",
                    "CDISC-TEST",
                    "CDISC-TEST",
                    "CDISC-TEST",
                    "CDISC-TEST",
                    "CDISC-TEST",
                    "CDISC-TEST",
                    "CDISC-TEST",
                    "CDISC-TEST",
                    "CDISC-TEST",
                    "CDISC-TEST",
                    "CDISC-TEST",
                    "CDISC-TEST",
                    "CDISC-TEST",
                    "CDISC-TEST",
                    "CDISC-TEST",
                    "CDISC-TEST",
                    "CDISC-TEST",
                    "CDISC-TEST",
                    "CDISC-TEST",
                    "CDISC-TEST",
                    "CDISC-TEST",
                    "CDISC-TEST",
                    "CDISC-TEST",
                    "CDISC-TEST",
                    "CDISC-TEST",
                    "CDISC-TEST",
                    "CDISC-TEST",
                    "CDISC-TEST",
                    "CDISC-TEST",
                    "CDISC-TEST",
                    "CDISC-TEST",
                    "CDISC-TEST",
                    "CDISC-TEST",
                    "CDISC-TEST",
                    "CDISC-TEST",
                    "CDISC-TEST",
                    "CDISC-TEST",
                    "CDISC-TEST",
                    "CDISC-TEST",
                    "CDISC-TEST",
                    "CDISC-TEST",
                    "CDISC-TEST",
                    "CDISC-TEST",
                    "CDISC-TEST",
                    "CDISC-TEST",
                    "CDISC-TEST",
                    "CDISC-TEST",
                    "CDISC-TEST",
                    "CDISC-TEST",
                    "CDISC-TEST",
                    "CDISC-TEST",
                    "CDISC-TEST",
                    "CDISC-TEST",
                    "CDISC-TEST",
                    "CDISC-TEST",
                    "CDISC-TEST",
                    "CDISC-TEST",
                    "CDISC-TEST",
                    "CDISC-TEST",
                    "CDISC-TEST",
                    "CDISC-TEST",
                    "CDISC-TEST",
                    "CDISC-TEST",
                    "CDISC-TEST",
                    "CDISC-TEST",
                    "CDISC-TEST",
                    "CDISC-TEST",
                    "CDISC-TEST",
                    "CDISC-TEST",
                    "CDISC-TEST",
                    "CDISC-TEST",
                    "CDISC-TEST",
                    "CDISC-TEST",
                    "CDISC-TEST",
                    "CDISC-TEST",
                    "CDISC-TEST",
                    "CDISC-TEST",
                    "CDISC-TEST",
                    "CDISC-TEST",
                    "CDISC-TEST",
                    "CDISC-TEST",
                    "CDISC-TEST",
                    "CDISC-TEST",
                    "CDISC-TEST",
                    "CDISC-TEST",
                    "CDISC-TEST",
                    "CDISC-TEST",
                    "CDISC-TEST",
                    "CDISC-TEST",
                    "CDISC-TEST",
                    "CDISC-TEST",
                    "CDISC-TEST",
                    "CDISC-TEST",
                    "CDISC-TEST",
                    "CDISC-TEST",
                    "CDISC-TEST",
                    "CDISC-TEST",
                    "CDISC-TEST",
                    "CDISC-TEST",
                    "CDISC-TEST",
                    "CDISC-TEST",
                    "CDISC-TEST",
                    "CDISC-TEST",
                    "CDISC-TEST",
                    "CDISC-TEST",
                    "CDISC-TEST",
                    "CDISC-TEST",
                    "CDISC-TEST",
                    "CDISC-TEST",
                    "CDISC-TEST",
                    "CDISC-TEST",
                    "CDISC-TEST",
                    "CDISC-TEST",
                    "CDISC-TEST",
                    "CDISC-TEST",
                    "CDISC-TEST",
                    "CDISC-TEST",
                    "CDISC-TEST",
                    "CDISC-TEST",
                    "CDISC-TEST",
                    "CDISC-TEST",
                    "CDISC-TEST",
                    "CDISC-TEST",
                    "CDISC-TEST",
                    "CDISC-TEST",
                    "CDISC-TEST",
                    "CDISC-TEST",
                    "CDISC-TEST",
                    "CDISC-TEST",
                    "CDISC-TEST",
                    "CDISC-TEST",
                    "CDISC-TEST",
                    "CDISC-TEST",
                    "CDISC-TEST",
                    "CDISC-TEST",
                    "CDISC-TEST",
                    "CDISC-TEST",
                    "CDISC-TEST",
                    "CDISC-TEST",
                    "CDISC-TEST",
                    "CDISC-TEST",
                    "CDISC-TEST",
                    "CDISC-TEST",
                    "CDISC-TEST",
                    "CDISC-TEST",
                    "CDISC-TEST",
                    "CDISC-TEST",
                    "CDISC-TEST",
                    "CDISC-TEST",
                    "CDISC-TEST",
                    "CDISC-TEST",
                    "CDISC-TEST",
                    "CDISC-TEST",
                    "CDISC-TEST",
                    "CDISC-TEST",
                    "CDISC-TEST",
                    "CDISC-TEST",
                    "CDISC-TEST",
                    "CDISC-TEST",
                    "CDISC-TEST",
                    "CDISC-TEST",
                    "CDISC-TEST",
                    "CDISC-TEST",
                    "CDISC-TEST",
                    "CDISC-TEST",
                    "CDISC-TEST",
                    "CDISC-TEST",
                    "CDISC-TEST",
                    "CDISC-TEST",
                    "CDISC-TEST",
                    "CDISC-TEST",
                    "CDISC-TEST",
                    "CDISC-TEST",
                    "CDISC-TEST",
                    "CDISC-TEST",
                    "CDISC-TEST",
                    "CDISC-TEST",
                    "CDISC-TEST",
                    "CDISC-TEST",
                    "CDISC-TEST",
                    "CDISC-TEST",
                    "CDISC-TEST",
                    "CDISC-TEST",
                    "CDISC-TEST",
                    "CDISC-TEST",
                    "CDISC-TEST",
                    "CDISC-TEST",
                    "CDISC-TEST",
                    "CDISC-TEST",
                    "CDISC-TEST",
                    "CDISC-TEST",
                    "CDISC-TEST",
                    "CDISC-TEST",
                    "CDISC-TEST",
                    "CDISC-TEST",
                    "CDISC-TEST",
                    "CDISC-TEST",
                    "CDISC-TEST",
                    "CDISC-TEST",
                    "CDISC-TEST",
                    "CDISC-TEST",
                    "CDISC-TEST",
                    "CDISC-TEST",
                    "CDISC-TEST",
                    "CDISC-TEST",
                    "CDISC-TEST",
                    "CDISC-TEST",
                    "CDISC-TEST",
                    "CDISC-TEST",
                    "CDISC-TEST",
                    "CDISC-TEST",
                    "CDISC-TEST",
                    "CDISC-TEST",
                    "CDISC-TEST",
                    "CDISC-TEST",
                    "CDISC-TEST",
                    "CDISC-TEST",
                    "CDISC-TEST",
                    "CDISC-TEST",
                    "CDISC-TEST",
                    "CDISC-TEST",
                    "CDISC-TEST",
                    "CDISC-TEST",
                    "CDISC-TEST",
                    "CDISC-TEST",
                    "CDISC-TEST",
                    "CDISC-TEST",
                    "CDISC-TEST",
                    "CDISC-TEST",
                    "CDISC-TEST",
                    "CDISC-TEST",
                    "CDISC-TEST",
                    "CDISC-TEST",
                    "CDISC-TEST",
                    "CDISC-TEST",
                    "CDISC-TEST",
                    "CDISC-TEST",
                    "CDISC-TEST",
                    "CDISC-TEST",
                    "CDISC-TEST",
                    "CDISC-TEST",
                    "CDISC-TEST",
                    "CDISC-TEST",
                    "CDISC-TEST",
                    "CDISC-TEST",
                    "CDISC-TEST",
                    "CDISC-TEST",
                    "CDISC-TEST",
                    "CDISC-TEST",
                    "CDISC-TEST",
                    "CDISC-TEST",
                    "CDISC-TEST",
                    "CDISC-TEST",
                    "CDISC-TEST",
                    "CDISC-TEST",
                    "CDISC-TEST",
                    "CDISC-TEST",
                    "CDISC-TEST",
                    "CDISC-TEST",
                    "CDISC-TEST",
                    "CDISC-TEST",
                    "CDISC-TEST",
                    "CDISC-TEST",
                    "CDISC-TEST",
                    "CDISC-TEST",
                    "CDISC-TEST",
                    "CDISC-TEST",
                    "CDISC-TEST",
                    "CDISC-TEST",
                    "CDISC-TEST",
                    "CDISC-TEST",
                    "CDISC-TEST",
                    "CDISC-TEST",
                    "CDISC-TEST",
                    "CDISC-TEST",
                    "CDISC-TEST",
                    "CDISC-TEST",
                    "CDISC-TEST",
                    "CDISC-TEST",
                    "CDISC-TEST",
                    "CDISC-TEST",
                    "CDISC-TEST",
                    "CDISC-TEST",
                    "CDISC-TEST",
                    "CDISC-TEST",
                    "CDISC-TEST",
                    "CDISC-TEST",
                    "CDISC-TEST",
                    "CDISC-TEST",
                    "CDISC-TEST",
                    "CDISC-TEST",
                    "CDISC-TEST",
                    "CDISC-TEST",
                    "CDISC-TEST",
                    "CDISC-TEST",
                    "CDISC-TEST",
                    "CDISC-TEST",
                    "CDISC-TEST",
                    "CDISC-TEST",
                    "CDISC-TEST",
                    "CDISC-TEST",
                    "CDISC-TEST",
                    "CDISC-TEST",
                    "CDISC-TEST",
                    "CDISC-TEST",
                    "CDISC-TEST",
                    "CDISC-TEST",
                    "CDISC-TEST",
                    "CDISC-TEST",
                    "CDISC-TEST",
                    "CDISC-TEST",
                    "CDISC-TEST",
                    "CDISC-TEST",
                    "CDISC-TEST",
                    "CDISC-TEST",
                    "CDISC-TEST",
                    "CDISC-TEST",
                    "CDISC-TEST",
                    "CDISC-TEST",
                    "CDISC-TEST",
                    "CDISC-TEST",
                    "CDISC-TEST",
                    "CDISC-TEST",
                    "CDISC-TEST",
                    "CDISC-TEST",
                    "CDISC-TEST",
                    "CDISC-TEST",
                    "CDISC-TEST",
                    "CDISC-TEST",
                    "CDISC-TEST",
                    "CDISC-TEST",
                    "CDISC-TEST",
                    "CDISC-TEST",
                    "CDISC-TEST",
                    "CDISC-TEST",
                    "CDISC-TEST",
                    "CDISC-TEST",
                    "CDISC-TEST",
                    "CDISC-TEST",
                    "CDISC-TEST",
                    "CDISC-TEST",
                    "CDISC-TEST",
                    "CDISC-TEST",
                    "CDISC-TEST",
                    "CDISC-TEST",
                    "CDISC-TEST",
                    "CDISC-TEST",
                    "CDISC-TEST",
                    "CDISC-TEST",
                    "CDISC-TEST",
                    "CDISC-TEST",
                    "CDISC-TEST",
                    "CDISC-TEST",
                    "CDISC-TEST",
                    "CDISC-TEST",
                    "CDISC-TEST",
                    "CDISC-TEST",
                    "CDISC-TEST",
                    "CDISC-TEST",
                    "CDISC-TEST",
                    "CDISC-TEST",
                    "CDISC-TEST",
                    "CDISC-TEST",
                    "CDISC-TEST",
                    "CDISC-TEST",
                    "CDISC-TEST",
                    "CDISC-TEST",
                    "CDISC-TEST",
                    "CDISC-TEST",
                    "CDISC-TEST",
                    "CDISC-TEST",
                    "CDISC-TEST",
                    "CDISC-TEST",
                    "CDISC-TEST",
                    "CDISC-TEST",
                    "CDISC-TEST",
                    "CDISC-TEST",
                    "CDISC-TEST",
                    "CDISC-TEST",
                    "CDISC-TEST",
                    "CDISC-TEST",
                    "CDISC-TEST",
                    "CDISC-TEST",
                    "CDISC-TEST",
                    "CDISC-TEST",
                    "CDISC-TEST",
                    "CDISC-TEST",
                    "CDISC-TEST",
                    "CDISC-TEST",
                    "CDISC-TEST",
                    "CDISC-TEST",
                    "CDISC-TEST",
                    "CDISC-TEST",
                    "CDISC-TEST",
                    "CDISC-TEST",
                    "CDISC-TEST",
                    "CDISC-TEST",
                    "CDISC-TEST",
                    "CDISC-TEST",
                    "CDISC-TEST",
                    "CDISC-TEST",
                    "CDISC-TEST",
                    "CDISC-TEST",
                    "CDISC-TEST",
                    "CDISC-TEST",
                    "CDISC-TEST",
                    "CDISC-TEST",
                    "CDISC-TEST",
                    "CDISC-TEST",
                    "CDISC-TEST",
                    "CDISC-TEST",
                    "CDISC-TEST",
                    "CDISC-TEST",
                    "CDISC-TEST",
                    "CDISC-TEST",
                    "CDISC-TEST",
                    "CDISC-TEST",
                    "CDISC-TEST",
                    "CDISC-TEST",
                    "CDISC-TEST",
                    "CDISC-TEST",
                    "CDISC-TEST",
                    "CDISC-TEST",
                    "CDISC-TEST",
                    "CDISC-TEST",
                    "CDISC-TEST",
                    "CDISC-TEST",
                    "CDISC-TEST",
                    "CDISC-TEST",
                    "CDISC-TEST",
                    "CDISC-TEST",
                    "CDISC-TEST",
                    "CDISC-TEST",
                    "CDISC-TEST",
                    "CDISC-TEST",
                    "CDISC-TEST",
                    "CDISC-TEST",
                    "CDISC-TEST",
                    "CDISC-TEST",
                    "CDISC-TEST",
                    "CDISC-TEST",
                    "CDISC-TEST",
                    "CDISC-TEST",
                    "CDISC-TEST",
                    "CDISC-TEST",
                    "CDISC-TEST",
                    "CDISC-TEST",
                    "CDISC-TEST",
                    "CDISC-TEST",
                    "CDISC-TEST",
                    "CDISC-TEST",
                    "CDISC-TEST",
                    "CDISC-TEST",
                    "CDISC-TEST",
                    "CDISC-TEST",
                    "CDISC-TEST",
                    "CDISC-TEST",
                    "CDISC-TEST",
                    "CDISC-TEST",
                    "CDISC-TEST",
                    "CDISC-TEST",
                    "CDISC-TEST",
                    "CDISC-TEST",
                    "CDISC-TEST",
                    "CDISC-TEST",
                    "CDISC-TEST",
                    "CDISC-TEST",
                    "CDISC-TEST",
                    "CDISC-TEST",
                    "CDISC-TEST",
                    "CDISC-TEST",
                    "CDISC-TEST",
                    "CDISC-TEST",
                    "CDISC-TEST",
                    "CDISC-TEST",
                    "CDISC-TEST",
                    "CDISC-TEST",
                    "CDISC-TEST",
                    "CDISC-TEST",
                    "CDISC-TEST",
                    "CDISC-TEST",
                    "CDISC-TEST",
                    "CDISC-TEST",
                    "CDISC-TEST",
                    "CDISC-TEST",
                    "CDISC-TEST",
                    "CDISC-TEST",
                    "CDISC-TEST",
                    "CDISC-TEST",
                    "CDISC-TEST",
                    "CDISC-TEST",
                    "CDISC-TEST",
                    "CDISC-TEST",
                    "CDISC-TEST",
                    "CDISC-TEST",
                    "CDISC-TEST",
                    "CDISC-TEST",
                    "CDISC-TEST",
                    "CDISC-TEST",
                    "CDISC-TEST",
                    "CDISC-TEST",
                    "CDISC-TEST",
                    "CDISC-TEST",
                    "CDISC-TEST",
                    "CDISC-TEST",
                    "CDISC-TEST",
                    "CDISC-TEST",
                    "CDISC-TEST",
                    "CDISC-TEST",
                    "CDISC-TEST",
                    "CDISC-TEST",
                    "CDISC-TEST",
                    "CDISC-TEST",
                    "CDISC-TEST",
                    "CDISC-TEST",
                    "CDISC-TEST",
                    "CDISC-TEST",
                    "CDISC-TEST",
                    "CDISC-TEST",
                    "CDISC-TEST",
                    "CDISC-TEST",
                    "CDISC-TEST",
                    "CDISC-TEST",
                    "CDISC-TEST",
                    "CDISC-TEST",
                    "CDISC-TEST",
                    "CDISC-TEST",
                    "CDISC-TEST",
                    "CDISC-TEST",
                    "CDISC-TEST",
                    "CDISC-TEST",
                    "CDISC-TEST",
                    "CDISC-TEST",
                    "CDISC-TEST",
                    "CDISC-TEST",
                    "CDISC-TEST",
                    "CDISC-TEST",
                    "CDISC-TEST",
                    "CDISC-TEST",
                    "CDISC-TEST",
                    "CDISC-TEST",
                    "CDISC-TEST",
                    "CDISC-TEST",
                    "CDISC-TEST",
                    "CDISC-TEST",
                    "CDISC-TEST",
                    "CDISC-TEST",
                    "CDISC-TEST",
                    "CDISC-TEST",
                    "CDISC-TEST",
                    "CDISC-TEST",
                    "CDISC-TEST",
                    "CDISC-TEST",
                    "CDISC-TEST",
                    "CDISC-TEST",
                    "CDISC-TEST",
                    "CDISC-TEST",
                    "CDISC-TEST",
                    "CDISC-TEST",
                    "CDISC-TEST",
                    "CDISC-TEST",
                    "CDISC-TEST",
                    "CDISC-TEST",
                    "CDISC-TEST",
                    "CDISC-TEST",
                    "CDISC-TEST",
                    "CDISC-TEST",
                    "CDISC-TEST",
                    "CDISC-TEST",
                    "CDISC-TEST",
                    "CDISC-TEST",
                    "CDISC-TEST",
                    "CDISC-TEST",
                    "CDISC-TEST",
                    "CDISC-TEST",
                    "CDISC-TEST",
                    "CDISC-TEST",
                    "CDISC-TEST",
                    "CDISC-TEST",
                    "CDISC-TEST",
                    "CDISC-TEST",
                    "CDISC-TEST",
                    "CDISC-TEST",
                    "CDISC-TEST",
                    "CDISC-TEST",
                    "CDISC-TEST",
                    "CDISC-TEST",
                    "CDISC-TEST",
                    "CDISC-TEST",
                    "CDISC-TEST",
                    "CDISC-TEST",
                    "CDISC-TEST",
                    "CDISC-TEST",
                    "CDISC-TEST",
                    "CDISC-TEST",
                    "CDISC-TEST",
                    "CDISC-TEST",
                    "CDISC-TEST",
                    "CDISC-TEST",
                    "CDISC-TEST",
                    "CDISC-TEST",
                    "CDISC-TEST",
                    "CDISC-TEST",
                    "CDISC-TEST",
                    "CDISC-TEST",
                    "CDISC-TEST",
                    "CDISC-TEST",
                    "CDISC-TEST",
                    "CDISC-TEST",
                    "CDISC-TEST",
                    "CDISC-TEST",
                    "CDISC-TEST",
                    "CDISC-TEST",
                    "CDISC-TEST",
                    "CDISC-TEST",
                    "CDISC-TEST",
                    "CDISC-TEST",
                    "CDISC-TEST",
                    "CDISC-TEST",
                    "CDISC-TEST",
                    "CDISC-TEST",
                    "CDISC-TEST",
                    "CDISC-TEST",
                    "CDISC-TEST",
                    "CDISC-TEST",
                    "CDISC-TEST",
                    "CDISC-TEST",
                    "CDISC-TEST",
                    "CDISC-TEST",
                    "CDISC-TEST",
                    "CDISC-TEST",
                    "CDISC-TEST"
                ],
                "DOMAIN": [
                    "AE",
                    "AE",
                    "AE",
                    "AE",
                    "AE",
                    "AE",
                    "AE",
                    "AE",
                    "AE",
                    "AE",
                    "AE",
                    "AE",
                    "AE",
                    "AE",
                    "AE",
                    "AE",
                    "AE",
                    "AE",
                    "AE",
                    "AE",
                    "AE",
                    "AE",
                    "AE",
                    "AE",
                    "AE",
                    "AE",
                    "AE",
                    "AE",
                    "AE",
                    "AE",
                    "AE",
                    "AE",
                    "AE",
                    "AE",
                    "AE",
                    "AE",
                    "AE",
                    "AE",
                    "AE",
                    "AE",
                    "AE",
                    "AE",
                    "AE",
                    "AE",
                    "AE",
                    "AE",
                    "AE",
                    "AE",
                    "AE",
                    "AE",
                    "AE",
                    "AE",
                    "AE",
                    "AE",
                    "AE",
                    "AE",
                    "AE",
                    "AE",
                    "AE",
                    "AE",
                    "AE",
                    "AE",
                    "AE",
                    "AE",
                    "AE",
                    "AE",
                    "AE",
                    "AE",
                    "AE",
                    "AE",
                    "AE",
                    "AE",
                    "AE",
                    "AE",
                    "AE",
                    "AE",
                    "AE",
                    "AE",
                    "AE",
                    "AE",
                    "AE",
                    "AE",
                    "AE",
                    "AE",
                    "AE",
                    "AE",
                    "AE",
                    "AE",
                    "AE",
                    "AE",
                    "AE",
                    "AE",
                    "AE",
                    "AE",
                    "AE",
                    "AE",
                    "AE",
                    "AE",
                    "AE",
                    "AE",
                    "AE",
                    "AE",
                    "AE",
                    "AE",
                    "AE",
                    "AE",
                    "AE",
                    "AE",
                    "AE",
                    "AE",
                    "AE",
                    "AE",
                    "AE",
                    "AE",
                    "AE",
                    "AE",
                    "AE",
                    "AE",
                    "AE",
                    "AE",
                    "AE",
                    "AE",
                    "AE",
                    "AE",
                    "AE",
                    "AE",
                    "AE",
                    "AE",
                    "AE",
                    "AE",
                    "AE",
                    "AE",
                    "AE",
                    "AE",
                    "AE",
                    "AE",
                    "AE",
                    "AE",
                    "AE",
                    "AE",
                    "AE",
                    "AE",
                    "AE",
                    "AE",
                    "AE",
                    "AE",
                    "AE",
                    "AE",
                    "AE",
                    "AE",
                    "AE",
                    "AE",
                    "AE",
                    "AE",
                    "AE",
                    "AE",
                    "AE",
                    "AE",
                    "AE",
                    "AE",
                    "AE",
                    "AE",
                    "AE",
                    "AE",
                    "AE",
                    "AE",
                    "AE",
                    "AE",
                    "AE",
                    "AE",
                    "AE",
                    "AE",
                    "AE",
                    "AE",
                    "AE",
                    "AE",
                    "AE",
                    "AE",
                    "AE",
                    "AE",
                    "AE",
                    "AE",
                    "AE",
                    "AE",
                    "AE",
                    "AE",
                    "AE",
                    "AE",
                    "AE",
                    "AE",
                    "AE",
                    "AE",
                    "AE",
                    "AE",
                    "AE",
                    "AE",
                    "AE",
                    "AE",
                    "AE",
                    "AE",
                    "AE",
                    "AE",
                    "AE",
                    "AE",
                    "AE",
                    "AE",
                    "AE",
                    "AE",
                    "AE",
                    "AE",
                    "AE",
                    "AE",
                    "AE",
                    "AE",
                    "AE",
                    "AE",
                    "AE",
                    "AE",
                    "AE",
                    "AE",
                    "AE",
                    "AE",
                    "AE",
                    "AE",
                    "AE",
                    "AE",
                    "AE",
                    "AE",
                    "AE",
                    "AE",
                    "AE",
                    "AE",
                    "AE",
                    "AE",
                    "AE",
                    "AE",
                    "AE",
                    "AE",
                    "AE",
                    "AE",
                    "AE",
                    "AE",
                    "AE",
                    "AE",
                    "AE",
                    "AE",
                    "AE",
                    "AE",
                    "AE",
                    "AE",
                    "AE",
                    "AE",
                    "AE",
                    "AE",
                    "AE",
                    "AE",
                    "AE",
                    "AE",
                    "AE",
                    "AE",
                    "AE",
                    "AE",
                    "AE",
                    "AE",
                    "AE",
                    "AE",
                    "AE",
                    "AE",
                    "AE",
                    "AE",
                    "AE",
                    "AE",
                    "AE",
                    "AE",
                    "AE",
                    "AE",
                    "AE",
                    "AE",
                    "AE",
                    "AE",
                    "AE",
                    "AE",
                    "AE",
                    "AE",
                    "AE",
                    "AE",
                    "AE",
                    "AE",
                    "AE",
                    "AE",
                    "AE",
                    "AE",
                    "AE",
                    "AE",
                    "AE",
                    "AE",
                    "AE",
                    "AE",
                    "AE",
                    "AE",
                    "AE",
                    "AE",
                    "AE",
                    "AE",
                    "AE",
                    "AE",
                    "AE",
                    "AE",
                    "AE",
                    "AE",
                    "AE",
                    "AE",
                    "AE",
                    "AE",
                    "AE",
                    "AE",
                    "AE",
                    "AE",
                    "AE",
                    "AE",
                    "AE",
                    "AE",
                    "AE",
                    "AE",
                    "AE",
                    "AE",
                    "AE",
                    "AE",
                    "AE",
                    "AE",
                    "AE",
                    "AE",
                    "AE",
                    "AE",
                    "AE",
                    "AE",
                    "AE",
                    "AE",
                    "AE",
                    "AE",
                    "AE",
                    "AE",
                    "AE",
                    "AE",
                    "AE",
                    "AE",
                    "AE",
                    "AE",
                    "AE",
                    "AE",
                    "AE",
                    "AE",
                    "AE",
                    "AE",
                    "AE",
                    "AE",
                    "AE",
                    "AE",
                    "AE",
                    "AE",
                    "AE",
                    "AE",
                    "AE",
                    "AE",
                    "AE",
                    "AE",
                    "AE",
                    "AE",
                    "AE",
                    "AE",
                    "AE",
                    "AE",
                    "AE",
                    "AE",
                    "AE",
                    "AE",
                    "AE",
                    "AE",
                    "AE",
                    "AE",
                    "AE",
                    "AE",
                    "AE",
                    "AE",
                    "AE",
                    "AE",
                    "AE",
                    "AE",
                    "AE",
                    "AE",
                    "AE",
                    "AE",
                    "AE",
                    "AE",
                    "AE",
                    "AE",
                    "AE",
                    "AE",
                    "AE",
                    "AE",
                    "AE",
                    "AE",
                    "AE",
                    "AE",
                    "AE",
                    "AE",
                    "AE",
                    "AE",
                    "AE",
                    "AE",
                    "AE",
                    "AE",
                    "AE",
                    "AE",
                    "AE",
                    "AE",
                    "AE",
                    "AE",
                    "AE",
                    "AE",
                    "AE",
                    "AE",
                    "AE",
                    "AE",
                    "AE",
                    "AE",
                    "AE",
                    "AE",
                    "AE",
                    "AE",
                    "AE",
                    "AE",
                    "AE",
                    "AE",
                    "AE",
                    "AE",
                    "AE",
                    "AE",
                    "AE",
                    "AE",
                    "AE",
                    "AE",
                    "AE",
                    "AE",
                    "AE",
                    "AE",
                    "AE",
                    "AE",
                    "AE",
                    "AE",
                    "AE",
                    "AE",
                    "AE",
                    "AE",
                    "AE",
                    "AE",
                    "AE",
                    "AE",
                    "AE",
                    "AE",
                    "AE",
                    "AE",
                    "AE",
                    "AE",
                    "AE",
                    "AE",
                    "AE",
                    "AE",
                    "AE",
                    "AE",
                    "AE",
                    "AE",
                    "AE",
                    "AE",
                    "AE",
                    "AE",
                    "AE",
                    "AE",
                    "AE",
                    "AE",
                    "AE",
                    "AE",
                    "AE",
                    "AE",
                    "AE",
                    "AE",
                    "AE",
                    "AE",
                    "AE",
                    "AE",
                    "AE",
                    "AE",
                    "AE",
                    "AE",
                    "AE",
                    "AE",
                    "AE",
                    "AE",
                    "AE",
                    "AE",
                    "AE",
                    "AE",
                    "AE",
                    "AE",
                    "AE",
                    "AE",
                    "AE",
                    "AE",
                    "AE",
                    "AE",
                    "AE",
                    "AE",
                    "AE",
                    "AE",
                    "AE",
                    "AE",
                    "AE",
                    "AE",
                    "AE",
                    "AE",
                    "AE",
                    "AE",
                    "AE",
                    "AE",
                    "AE",
                    "AE",
                    "AE",
                    "AE",
                    "AE",
                    "AE",
                    "AE",
                    "AE",
                    "AE",
                    "AE",
                    "AE",
                    "AE",
                    "AE",
                    "AE",
                    "AE",
                    "AE",
                    "AE",
                    "AE",
                    "AE",
                    "AE",
                    "AE",
                    "AE",
                    "AE",
                    "AE",
                    "AE",
                    "AE",
                    "AE",
                    "AE",
                    "AE",
                    "AE",
                    "AE",
                    "AE",
                    "AE",
                    "AE",
                    "AE",
                    "AE",
                    "AE",
                    "AE",
                    "AE",
                    "AE",
                    "AE",
                    "AE",
                    "AE",
                    "AE",
                    "AE",
                    "AE",
                    "AE",
                    "AE",
                    "AE",
                    "AE",
                    "AE",
                    "AE",
                    "AE",
                    "AE",
                    "AE",
                    "AE",
                    "AE",
                    "AE",
                    "AE",
                    "AE",
                    "AE",
                    "AE",
                    "AE",
                    "AE",
                    "AE",
                    "AE",
                    "AE",
                    "AE",
                    "AE",
                    "AE",
                    "AE",
                    "AE",
                    "AE",
                    "AE",
                    "AE",
                    "AE",
                    "AE",
                    "AE",
                    "AE",
                    "AE",
                    "AE",
                    "AE",
                    "AE",
                    "AE",
                    "AE",
                    "AE",
                    "AE",
                    "AE",
                    "AE",
                    "AE",
                    "AE",
                    "AE",
                    "AE",
                    "AE",
                    "AE",
                    "AE",
                    "AE",
                    "AE",
                    "AE",
                    "AE",
                    "AE",
                    "AE",
                    "AE",
                    "AE",
                    "AE",
                    "AE",
                    "AE",
                    "AE",
                    "AE",
                    "AE",
                    "AE",
                    "AE",
                    "AE",
                    "AE",
                    "AE",
                    "AE",
                    "AE",
                    "AE",
                    "AE",
                    "AE",
                    "AE",
                    "AE",
                    "AE",
                    "AE",
                    "AE",
                    "AE",
                    "AE",
                    "AE",
                    "AE",
                    "AE",
                    "AE",
                    "AE",
                    "AE",
                    "AE",
                    "AE",
                    "AE",
                    "AE",
                    "AE",
                    "AE",
                    "AE",
                    "AE",
                    "AE",
                    "AE",
                    "AE",
                    "AE",
                    "AE",
                    "AE",
                    "AE",
                    "AE",
                    "AE",
                    "AE",
                    "AE",
                    "AE",
                    "AE",
                    "AE",
                    "AE",
                    "AE",
                    "AE",
                    "AE",
                    "AE",
                    "AE",
                    "AE",
                    "AE",
                    "AE",
                    "AE",
                    "AE",
                    "AE",
                    "AE",
                    "AE",
                    "AE",
                    "AE",
                    "AE",
                    "AE",
                    "AE",
                    "AE",
                    "AE",
                    "AE",
                    "AE",
                    "AE",
                    "AE",
                    "AE",
                    "AE",
                    "AE",
                    "AE",
                    "AE",
                    "AE",
                    "AE",
                    "AE",
                    "AE",
                    "AE",
                    "AE",
                    "AE",
                    "AE",
                    "AE",
                    "AE",
                    "AE",
                    "AE",
                    "AE",
                    "AE",
                    "AE",
                    "AE",
                    "AE",
                    "AE",
                    "AE",
                    "AE",
                    "AE",
                    "AE",
                    "AE",
                    "AE",
                    "AE",
                    "AE",
                    "AE",
                    "AE",
                    "AE",
                    "AE",
                    "AE",
                    "AE",
                    "AE",
                    "AE",
                    "AE",
                    "AE",
                    "AE",
                    "AE",
                    "AE",
                    "AE",
                    "AE",
                    "AE",
                    "AE",
                    "AE",
                    "AE",
                    "AE",
                    "AE",
                    "AE",
                    "AE",
                    "AE",
                    "AE",
                    "AE",
                    "AE",
                    "AE",
                    "AE",
                    "AE",
                    "AE",
                    "AE",
                    "AE",
                    "AE",
                    "AE",
                    "AE",
                    "AE",
                    "AE",
                    "AE",
                    "AE",
                    "AE",
                    "AE",
                    "AE",
                    "AE",
                    "AE",
                    "AE",
                    "AE",
                    "AE",
                    "AE",
                    "AE",
                    "AE",
                    "AE",
                    "AE",
                    "AE",
                    "AE",
                    "AE",
                    "AE",
                    "AE",
                    "AE",
                    "AE",
                    "AE",
                    "AE",
                    "AE",
                    "AE",
                    "AE",
                    "AE",
                    "AE",
                    "AE",
                    "AE",
                    "AE",
                    "AE",
                    "AE",
                    "AE",
                    "AE",
                    "AE",
                    "AE",
                    "AE",
                    "AE",
                    "AE",
                    "AE",
                    "AE",
                    "AE",
                    "AE",
                    "AE",
                    "AE",
                    "AE",
                    "AE",
                    "AE",
                    "AE",
                    "AE",
                    "AE",
                    "AE",
                    "AE",
                    "AE",
                    "AE",
                    "AE",
                    "AE",
                    "AE",
                    "AE",
                    "AE",
                    "AE",
                    "AE",
                    "AE",
                    "AE",
                    "AE",
                    "AE",
                    "AE",
                    "AE",
                    "AE",
                    "AE",
                    "AE",
                    "AE",
                    "AE",
                    "AE",
                    "AE",
                    "AE",
                    "AE",
                    "AE",
                    "AE",
                    "AE",
                    "AE",
                    "AE",
                    "AE",
                    "AE",
                    "AE",
                    "AE",
                    "AE",
                    "AE",
                    "AE",
                    "AE",
                    "AE",
                    "AE",
                    "AE",
                    "AE",
                    "AE",
                    "AE",
                    "AE",
                    "AE",
                    "AE",
                    "AE",
                    "AE",
                    "AE",
                    "AE",
                    "AE",
                    "AE",
                    "AE",
                    "AE",
                    "AE",
                    "AE",
                    "AE",
                    "AE",
                    "AE",
                    "AE",
                    "AE",
                    "AE",
                    "AE",
                    "AE",
                    "AE",
                    "AE",
                    "AE",
                    "AE",
                    "AE",
                    "AE",
                    "AE",
                    "AE",
                    "AE",
                    "AE",
                    "AE",
                    "AE",
                    "AE",
                    "AE",
                    "AE",
                    "AE",
                    "AE",
                    "AE",
                    "AE",
                    "AE",
                    "AE",
                    "AE",
                    "AE",
                    "AE",
                    "AE",
                    "AE",
                    "AE",
                    "AE",
                    "AE",
                    "AE",
                    "AE",
                    "AE",
                    "AE",
                    "AE",
                    "AE",
                    "AE",
                    "AE",
                    "AE",
                    "AE",
                    "AE",
                    "AE",
                    "AE",
                    "AE",
                    "AE",
                    "AE",
                    "AE",
                    "AE",
                    "AE",
                    "AE",
                    "AE",
                    "AE",
                    "AE",
                    "AE",
                    "AE",
                    "AE",
                    "AE",
                    "AE",
                    "AE",
                    "AE",
                    "AE",
                    "AE",
                    "AE",
                    "AE",
                    "AE",
                    "AE",
                    "AE",
                    "AE",
                    "AE",
                    "AE",
                    "AE",
                    "AE",
                    "AE",
                    "AE",
                    "AE",
                    "AE",
                    "AE",
                    "AE",
                    "AE",
                    "AE",
                    "AE",
                    "AE",
                    "AE",
                    "AE",
                    "AE",
                    "AE",
                    "AE",
                    "AE",
                    "AE",
                    "AE",
                    "AE",
                    "AE",
                    "AE",
                    "AE",
                    "AE",
                    "AE",
                    "AE",
                    "AE",
                    "AE",
                    "AE",
                    "AE",
                    "AE",
                    "AE",
                    "AE",
                    "AE",
                    "AE",
                    "AE",
                    "AE",
                    "AE",
                    "AE",
                    "AE",
                    "AE",
                    "AE",
                    "AE",
                    "AE",
                    "AE",
                    "AE",
                    "AE",
                    "AE",
                    "AE",
                    "AE",
                    "AE",
                    "AE",
                    "AE",
                    "AE",
                    "AE",
                    "AE",
                    "AE",
                    "AE",
                    "AE",
                    "AE",
                    "AE",
                    "AE",
                    "AE",
                    "AE",
                    "AE",
                    "AE",
                    "AE",
                    "AE",
                    "AE",
                    "AE",
                    "AE",
                    "AE",
                    "AE",
                    "AE",
                    "AE",
                    "AE",
                    "AE",
                    "AE",
                    "AE",
                    "AE",
                    "AE",
                    "AE",
                    "AE",
                    "AE",
                    "AE",
                    "AE",
                    "AE",
                    "AE",
                    "AE",
                    "AE",
                    "AE",
                    "AE",
                    "AE",
                    "AE",
                    "AE",
                    "AE",
                    "AE",
                    "AE",
                    "AE",
                    "AE",
                    "AE",
                    "AE",
                    "AE",
                    "AE",
                    "AE",
                    "AE",
                    "AE",
                    "AE",
                    "AE",
                    "AE",
                    "AE",
                    "AE",
                    "AE",
                    "AE",
                    "AE",
                    "AE",
                    "AE",
                    "AE",
                    "AE",
                    "AE",
                    "AE",
                    "AE",
                    "AE",
                    "AE",
                    "AE",
                    "AE",
                    "AE",
                    "AE",
                    "AE",
                    "AE",
                    "AE",
                    "AE",
                    "AE",
                    "AE",
                    "AE",
                    "AE",
                    "AE",
                    "AE",
                    "AE",
                    "AE",
                    "AE",
                    "AE",
                    "AE",
                    "AE",
                    "AE",
                    "AE",
                    "AE",
                    "AE",
                    "AE",
                    "AE",
                    "AE",
                    "AE",
                    "AE",
                    "AE",
                    "AE",
                    "AE",
                    "AE",
                    "AE",
                    "AE",
                    "AE",
                    "AE",
                    "AE",
                    "AE",
                    "AE",
                    "AE",
                    "AE",
                    "AE",
                    "AE",
                    "AE",
                    "AE",
                    "AE",
                    "AE",
                    "AE",
                    "AE",
                    "AE",
                    "AE",
                    "AE",
                    "AE",
                    "AE",
                    "AE",
                    "AE",
                    "AE",
                    "AE",
                    "AE",
                    "AE",
                    "AE",
                    "AE",
                    "AE",
                    "AE",
                    "AE",
                    "AE",
                    "AE",
                    "AE",
                    "AE",
                    "AE",
                    "AE",
                    "AE",
                    "AE",
                    "AE",
                    "AE",
                    "AE",
                    "AE",
                    "AE",
                    "AE",
                    "AE",
                    "AE",
                    "AE",
                    "AE",
                    "AE",
                    "AE",
                    "AE",
                    "AE",
                    "AE",
                    "AE",
                    "AE",
                    "AE",
                    "AE",
                    "AE",
                    "AE",
                    "AE",
                    "AE",
                    "AE",
                    "AE",
                    "AE",
                    "AE",
                    "AE",
                    "AE",
                    "AE",
                    "AE",
                    "AE",
                    "AE",
                    "AE",
                    "AE",
                    "AE",
                    "AE",
                    "AE",
                    "AE",
                    "AE",
                    "AE",
                    "AE",
                    "AE",
                    "AE",
                    "AE",
                    "AE",
                    "AE",
                    "AE",
                    "AE",
                    "AE",
                    "AE",
                    "AE",
                    "AE",
                    "AE",
                    "AE",
                    "AE",
                    "AE",
                    "AE",
                    "AE",
                    "AE",
                    "AE",
                    "AE",
                    "AE",
                    "AE",
                    "AE",
                    "AE",
                    "AE",
                    "AE",
                    "AE",
                    "AE",
                    "AE",
                    "AE",
                    "AE",
                    "AE",
                    "AE",
                    "AE",
                    "AE",
                    "AE",
                    "AE",
                    "AE",
                    "AE",
                    "AE",
                    "AE",
                    "AE",
                    "AE",
                    "AE",
                    "AE",
                    "AE",
                    "AE",
                    "AE",
                    "AE",
                    "AE",
                    "AE",
                    "AE",
                    "AE",
                    "AE",
                    "AE",
                    "AE",
                    "AE",
                    "AE",
                    "AE",
                    "AE",
                    "AE",
                    "AE",
                    "AE",
                    "AE",
                    "AE",
                    "AE",
                    "AE",
                    "AE",
                    "AE",
                    "AE",
                    "AE",
                    "AE",
                    "AE",
                    "AE",
                    "AE",
                    "AE",
                    "AE",
                    "AE",
                    "AE",
                    "AE",
                    "AE",
                    "AE",
                    "AE",
                    "AE",
                    "AE",
                    "AE",
                    "AE",
                    "AE",
                    "AE",
                    "AE",
                    "AE",
                    "AE",
                    "AE",
                    "AE",
                    "AE",
                    "AE",
                    "AE",
                    "AE",
                    "AE",
                    "AE",
                    "AE",
                    "AE",
                    "AE",
                    "AE",
                    "AE",
                    "AE",
                    "AE",
                    "AE",
                    "AE",
                    "AE",
                    "AE",
                    "AE",
                    "AE",
                    "AE",
                    "AE",
                    "AE",
                    "AE",
                    "AE",
                    "AE",
                    "AE",
                    "AE",
                    "AE",
                    "AE",
                    "AE",
                    "AE",
                    "AE",
                    "AE",
                    "AE",
                    "AE",
                    "AE",
                    "AE",
                    "AE",
                    "AE",
                    "AE",
                    "AE",
                    "AE",
                    "AE",
                    "AE",
                    "AE",
                    "AE",
                    "AE",
                    "AE",
                    "AE",
                    "AE",
                    "AE",
                    "AE",
                    "AE",
                    "AE",
                    "AE",
                    "AE",
                    "AE",
                    "AE",
                    "AE",
                    "AE",
                    "AE",
                    "AE",
                    "AE",
                    "AE",
                    "AE",
                    "AE",
                    "AE",
                    "AE",
                    "AE",
                    "AE",
                    "AE",
                    "AE",
                    "AE",
                    "AE",
                    "AE",
                    "AE",
                    "AE",
                    "AE",
                    "AE",
                    "AE",
                    "AE",
                    "AE",
                    "AE",
                    "AE",
                    "AE",
                    "AE",
                    "AE",
                    "AE",
                    "AE",
                    "AE",
                    "AE",
                    "AE",
                    "AE",
                    "AE",
                    "AE",
                    "AE",
                    "AE",
                    "AE",
                    "AE",
                    "AE",
                    "AE",
                    "AE",
                    "AE",
                    "AE",
                    "AE",
                    "AE",
                    "AE",
                    "AE",
                    "AE",
                    "AE",
                    "AE",
                    "AE",
                    "AE",
                    "AE",
                    "AE",
                    "AE",
                    "AE",
                    "AE",
                    "AE",
                    "AE",
                    "AE",
                    "AE",
                    "AE",
                    "AE",
                    "AE",
                    "AE",
                    "AE",
                    "AE",
                    "AE",
                    "AE",
                    "AE",
                    "AE",
                    "AE",
                    "AE",
                    "AE",
                    "AE",
                    "AE",
                    "AE",
                    "AE",
                    "AE",
                    "AE",
                    "AE",
                    "AE",
                    "AE",
                    "AE",
                    "AE",
                    "AE",
                    "AE",
                    "AE",
                    "AE",
                    "AE",
                    "AE",
                    "AE",
                    "AE",
                    "AE",
                    "AE",
                    "AE",
                    "AE",
                    "AE",
                    "AE",
                    "AE",
                    "AE",
                    "AE",
                    "AE",
                    "AE",
                    "AE",
                    "AE",
                    "AE",
                    "AE",
                    "AE",
                    "AE",
                    "AE",
                    "AE",
                    "AE",
                    "AE",
                    "AE",
                    "AE",
                    "AE",
                    "AE",
                    "AE",
                    "AE",
                    "AE",
                    "AE",
                    "AE",
                    "AE",
                    "AE",
                    "AE",
                    "AE",
                    "AE",
                    "AE",
                    "AE",
                    "AE",
                    "AE",
                    "AE",
                    "AE",
                    "AE",
                    "AE",
                    "AE",
                    "AE",
                    "AE",
                    "AE",
                    "AE",
                    "AE",
                    "AE",
                    "AE",
                    "AE",
                    "AE",
                    "AE",
                    "AE",
                    "AE",
                    "AE",
                    "AE",
                    "AE",
                    "AE",
                    "AE",
                    "AE",
                    "AE",
                    "AE",
                    "AE",
                    "AE",
                    "AE",
                    "AE",
                    "AE",
                    "AE",
                    "AE",
                    "AE",
                    "AE",
                    "AE",
                    "AE",
                    "AE",
                    "AE",
                    "AE",
                    "AE",
                    "AE",
                    "AE",
                    "AE",
                    "AE",
                    "AE",
                    "AE",
                    "AE",
                    "AE",
                    "AE",
                    "AE",
                    "AE",
                    "AE",
                    "AE",
                    "AE",
                    "AE",
                    "AE",
                    "AE",
                    "AE",
                    "AE",
                    "AE",
                    "AE",
                    "AE",
                    "AE",
                    "AE",
                    "AE",
                    "AE",
                    "AE",
                    "AE",
                    "AE",
                    "AE",
                    "AE",
                    "AE",
                    "AE",
                    "AE",
                    "AE",
                    "AE",
                    "AE",
                    "AE",
                    "AE",
                    "AE",
                    "AE",
                    "AE",
                    "AE",
                    "AE",
                    "AE",
                    "AE",
                    "AE",
                    "AE",
                    "AE",
                    "AE",
                    "AE",
                    "AE",
                    "AE",
                    "AE",
                    "AE",
                    "AE",
                    "AE",
                    "AE",
                    "AE",
                    "AE",
                    "AE",
                    "AE",
                    "AE",
                    "AE",
                    "AE",
                    "AE",
                    "AE",
                    "AE",
                    "AE",
                    "AE",
                    "AE",
                    "AE",
                    "AE",
                    "AE",
                    "AE",
                    "AE",
                    "AE",
                    "AE",
                    "AE",
                    "AE",
                    "AE",
                    "AE",
                    "AE",
                    "AE",
                    "AE",
                    "AE",
                    "AE"
                ],
                "USUBJID": [
                    "CDISC-TEST-001",
                    "CDISC-TEST-001",
                    "CDISC-TEST-001",
                    "CDISC-TEST-001",
                    "CDISC-TEST-001",
                    "CDISC-TEST-001",
                    "CDISC-TEST-001",
                    "CDISC-TEST-001",
                    "CDISC-TEST-001",
                    "CDISC-TEST-001",
                    "CDISC-TEST-001",
                    "CDISC-TEST-001",
                    "CDISC-TEST-001",
                    "CDISC-TEST-001",
                    "CDISC-TEST-001",
                    "CDISC-TEST-002",
                    "CDISC-TEST-002",
                    "CDISC-TEST-002",
                    "CDISC-TEST-002",
                    "CDISC-TEST-002",
                    "CDISC-TEST-002",
                    "CDISC-TEST-002",
                    "CDISC-TEST-002",
                    "CDISC-TEST-002",
                    "CDISC-TEST-002",
                    "CDISC-TEST-002",
                    "CDISC-TEST-002",
                    "CDISC-TEST-002",
                    "CDISC-TEST-002",
                    "CDISC-TEST-002",
                    "CDISC-TEST-002",
                    "CDISC-TEST-002",
                    "CDISC-TEST-003",
                    "CDISC-TEST-003",
                    "CDISC-TEST-003",
                    "CDISC-TEST-003",
                    "CDISC-TEST-003",
                    "CDISC-TEST-003",
                    "CDISC-TEST-003",
                    "CDISC-TEST-003",
                    "CDISC-TEST-003",
                    "CDISC-TEST-003",
                    "CDISC-TEST-003",
                    "CDISC-TEST-003",
                    "CDISC-TEST-003",
                    "CDISC-TEST-004",
                    "CDISC-TEST-004",
                    "CDISC-TEST-004",
                    "CDISC-TEST-004",
                    "CDISC-TEST-004",
                    "CDISC-TEST-004",
                    "CDISC-TEST-004",
                    "CDISC-TEST-004",
                    "CDISC-TEST-004",
                    "CDISC-TEST-004",
                    "CDISC-TEST-004",
                    "CDISC-TEST-004",
                    "CDISC-TEST-004",
                    "CDISC-TEST-004",
                    "CDISC-TEST-004",
                    "CDISC-TEST-004",
                    "CDISC-TEST-004",
                    "CDISC-TEST-004",
                    "CDISC-TEST-004",
                    "CDISC-TEST-004",
                    "CDISC-TEST-005",
                    "CDISC-TEST-005",
                    "CDISC-TEST-005",
                    "CDISC-TEST-005",
                    "CDISC-TEST-005",
                    "CDISC-TEST-005",
                    "CDISC-TEST-005",
                    "CDISC-TEST-005",
                    "CDISC-TEST-005",
                    "CDISC-TEST-005",
                    "CDISC-TEST-005",
                    "CDISC-TEST-005",
                    "CDISC-TEST-005",
                    "CDISC-TEST-005",
                    "CDISC-TEST-005",
                    "CDISC-TEST-005",
                    "CDISC-TEST-005",
                    "CDISC-TEST-006",
                    "CDISC-TEST-006",
                    "CDISC-TEST-006",
                    "CDISC-TEST-006",
                    "CDISC-TEST-006",
                    "CDISC-TEST-006",
                    "CDISC-TEST-006",
                    "CDISC-TEST-006",
                    "CDISC-TEST-006",
                    "CDISC-TEST-006",
                    "CDISC-TEST-006",
                    "CDISC-TEST-006",
                    "CDISC-TEST-006",
                    "CDISC-TEST-006",
                    "CDISC-TEST-006",
                    "CDISC-TEST-006",
                    "CDISC-TEST-006",
                    "CDISC-TEST-006",
                    "CDISC-TEST-007",
                    "CDISC-TEST-007",
                    "CDISC-TEST-007",
                    "CDISC-TEST-007",
                    "CDISC-TEST-007",
                    "CDISC-TEST-007",
                    "CDISC-TEST-007",
                    "CDISC-TEST-007",
                    "CDISC-TEST-007",
                    "CDISC-TEST-007",
                    "CDISC-TEST-007",
                    "CDISC-TEST-007",
                    "CDISC-TEST-007",
                    "CDISC-TEST-007",
                    "CDISC-TEST-007",
                    "CDISC-TEST-007",
                    "CDISC-TEST-007",
                    "CDISC-TEST-007",
                    "CDISC-TEST-007",
                    "CDISC-TEST-008",
                    "CDISC-TEST-008",
                    "CDISC-TEST-008",
                    "CDISC-TEST-008",
                    "CDISC-TEST-008",
                    "CDISC-TEST-008",
                    "CDISC-TEST-008",
                    "CDISC-TEST-008",
                    "CDISC-TEST-008",
                    "CDISC-TEST-008",
                    "CDISC-TEST-008",
                    "CDISC-TEST-008",
                    "CDISC-TEST-008",
                    "CDISC-TEST-008",
                    "CDISC-TEST-009",
                    "CDISC-TEST-009",
                    "CDISC-TEST-009",
                    "CDISC-TEST-009",
                    "CDISC-TEST-009",
                    "CDISC-TEST-009",
                    "CDISC-TEST-009",
                    "CDISC-TEST-009",
                    "CDISC-TEST-009",
                    "CDISC-TEST-009",
                    "CDISC-TEST-009",
                    "CDISC-TEST-009",
                    "CDISC-TEST-009",
                    "CDISC-TEST-009",
                    "CDISC-TEST-009",
                    "CDISC-TEST-010",
                    "CDISC-TEST-010",
                    "CDISC-TEST-010",
                    "CDISC-TEST-010",
                    "CDISC-TEST-010",
                    "CDISC-TEST-010",
                    "CDISC-TEST-010",
                    "CDISC-TEST-010",
                    "CDISC-TEST-010",
                    "CDISC-TEST-010",
                    "CDISC-TEST-010",
                    "CDISC-TEST-010",
                    "CDISC-TEST-010",
                    "CDISC-TEST-010",
                    "CDISC-TEST-010",
                    "CDISC-TEST-010",
                    "CDISC-TEST-010",
                    "CDISC-TEST-011",
                    "CDISC-TEST-011",
                    "CDISC-TEST-011",
                    "CDISC-TEST-011",
                    "CDISC-TEST-011",
                    "CDISC-TEST-011",
                    "CDISC-TEST-011",
                    "CDISC-TEST-011",
                    "CDISC-TEST-011",
                    "CDISC-TEST-011",
                    "CDISC-TEST-011",
                    "CDISC-TEST-011",
                    "CDISC-TEST-011",
                    "CDISC-TEST-011",
                    "CDISC-TEST-011",
                    "CDISC-TEST-011",
                    "CDISC-TEST-011",
                    "CDISC-TEST-011",
                    "CDISC-TEST-011",
                    "CDISC-TEST-011",
                    "CDISC-TEST-012",
                    "CDISC-TEST-012",
                    "CDISC-TEST-012",
                    "CDISC-TEST-012",
                    "CDISC-TEST-012",
                    "CDISC-TEST-012",
                    "CDISC-TEST-012",
                    "CDISC-TEST-012",
                    "CDISC-TEST-012",
                    "CDISC-TEST-012",
                    "CDISC-TEST-012",
                    "CDISC-TEST-012",
                    "CDISC-TEST-012",
                    "CDISC-TEST-013",
                    "CDISC-TEST-013",
                    "CDISC-TEST-013",
                    "CDISC-TEST-013",
                    "CDISC-TEST-013",
                    "CDISC-TEST-013",
                    "CDISC-TEST-013",
                    "CDISC-TEST-013",
                    "CDISC-TEST-013",
                    "CDISC-TEST-013",
                    "CDISC-TEST-013",
                    "CDISC-TEST-013",
                    "CDISC-TEST-013",
                    "CDISC-TEST-013",
                    "CDISC-TEST-013",
                    "CDISC-TEST-013",
                    "CDISC-TEST-014",
                    "CDISC-TEST-014",
                    "CDISC-TEST-014",
                    "CDISC-TEST-014",
                    "CDISC-TEST-014",
                    "CDISC-TEST-014",
                    "CDISC-TEST-014",
                    "CDISC-TEST-014",
                    "CDISC-TEST-014",
                    "CDISC-TEST-014",
                    "CDISC-TEST-014",
                    "CDISC-TEST-014",
                    "CDISC-TEST-015",
                    "CDISC-TEST-015",
                    "CDISC-TEST-015",
                    "CDISC-TEST-015",
                    "CDISC-TEST-015",
                    "CDISC-TEST-015",
                    "CDISC-TEST-015",
                    "CDISC-TEST-015",
                    "CDISC-TEST-015",
                    "CDISC-TEST-015",
                    "CDISC-TEST-015",
                    "CDISC-TEST-015",
                    "CDISC-TEST-015",
                    "CDISC-TEST-016",
                    "CDISC-TEST-016",
                    "CDISC-TEST-016",
                    "CDISC-TEST-016",
                    "CDISC-TEST-016",
                    "CDISC-TEST-016",
                    "CDISC-TEST-016",
                    "CDISC-TEST-016",
                    "CDISC-TEST-016",
                    "CDISC-TEST-016",
                    "CDISC-TEST-016",
                    "CDISC-TEST-016",
                    "CDISC-TEST-016",
                    "CDISC-TEST-016",
                    "CDISC-TEST-016",
                    "CDISC-TEST-016",
                    "CDISC-TEST-016",
                    "CDISC-TEST-016",
                    "CDISC-TEST-016",
                    "CDISC-TEST-016",
                    "CDISC-TEST-017",
                    "CDISC-TEST-017",
                    "CDISC-TEST-017",
                    "CDISC-TEST-017",
                    "CDISC-TEST-017",
                    "CDISC-TEST-017",
                    "CDISC-TEST-017",
                    "CDISC-TEST-017",
                    "CDISC-TEST-017",
                    "CDISC-TEST-017",
                    "CDISC-TEST-017",
                    "CDISC-TEST-017",
                    "CDISC-TEST-017",
                    "CDISC-TEST-017",
                    "CDISC-TEST-017",
                    "CDISC-TEST-017",
                    "CDISC-TEST-017",
                    "CDISC-TEST-017",
                    "CDISC-TEST-017",
                    "CDISC-TEST-017",
                    "CDISC-TEST-018",
                    "CDISC-TEST-018",
                    "CDISC-TEST-018",
                    "CDISC-TEST-018",
                    "CDISC-TEST-018",
                    "CDISC-TEST-018",
                    "CDISC-TEST-018",
                    "CDISC-TEST-018",
                    "CDISC-TEST-018",
                    "CDISC-TEST-018",
                    "CDISC-TEST-018",
                    "CDISC-TEST-018",
                    "CDISC-TEST-018",
                    "CDISC-TEST-019",
                    "CDISC-TEST-019",
                    "CDISC-TEST-019",
                    "CDISC-TEST-019",
                    "CDISC-TEST-019",
                    "CDISC-TEST-019",
                    "CDISC-TEST-019",
                    "CDISC-TEST-019",
                    "CDISC-TEST-019",
                    "CDISC-TEST-019",
                    "CDISC-TEST-019",
                    "CDISC-TEST-019",
                    "CDISC-TEST-019",
                    "CDISC-TEST-019",
                    "CDISC-TEST-019",
                    "CDISC-TEST-019",
                    "CDISC-TEST-020",
                    "CDISC-TEST-020",
                    "CDISC-TEST-020",
                    "CDISC-TEST-020",
                    "CDISC-TEST-020",
                    "CDISC-TEST-020",
                    "CDISC-TEST-020",
                    "CDISC-TEST-020",
                    "CDISC-TEST-020",
                    "CDISC-TEST-020",
                    "CDISC-TEST-020",
                    "CDISC-TEST-020",
                    "CDISC-TEST-020",
                    "CDISC-TEST-020",
                    "CDISC-TEST-020",
                    "CDISC-TEST-020",
                    "CDISC-TEST-020",
                    "CDISC-TEST-020",
                    "CDISC-TEST-020",
                    "CDISC-TEST-020",
                    "CDISC-TEST-021",
                    "CDISC-TEST-021",
                    "CDISC-TEST-021",
                    "CDISC-TEST-021",
                    "CDISC-TEST-021",
                    "CDISC-TEST-021",
                    "CDISC-TEST-021",
                    "CDISC-TEST-021",
                    "CDISC-TEST-021",
                    "CDISC-TEST-021",
                    "CDISC-TEST-021",
                    "CDISC-TEST-021",
                    "CDISC-TEST-021",
                    "CDISC-TEST-021",
                    "CDISC-TEST-022",
                    "CDISC-TEST-022",
                    "CDISC-TEST-022",
                    "CDISC-TEST-022",
                    "CDISC-TEST-022",
                    "CDISC-TEST-022",
                    "CDISC-TEST-022",
                    "CDISC-TEST-022",
                    "CDISC-TEST-022",
                    "CDISC-TEST-022",
                    "CDISC-TEST-022",
                    "CDISC-TEST-022",
                    "CDISC-TEST-022",
                    "CDISC-TEST-022",
                    "CDISC-TEST-022",
                    "CDISC-TEST-022",
                    "CDISC-TEST-022",
                    "CDISC-TEST-022",
                    "CDISC-TEST-023",
                    "CDISC-TEST-023",
                    "CDISC-TEST-023",
                    "CDISC-TEST-023",
                    "CDISC-TEST-023",
                    "CDISC-TEST-023",
                    "CDISC-TEST-023",
                    "CDISC-TEST-023",
                    "CDISC-TEST-023",
                    "CDISC-TEST-023",
                    "CDISC-TEST-023",
                    "CDISC-TEST-023",
                    "CDISC-TEST-024",
                    "CDISC-TEST-024",
                    "CDISC-TEST-024",
                    "CDISC-TEST-024",
                    "CDISC-TEST-024",
                    "CDISC-TEST-024",
                    "CDISC-TEST-024",
                    "CDISC-TEST-024",
                    "CDISC-TEST-024",
                    "CDISC-TEST-024",
                    "CDISC-TEST-024",
                    "CDISC-TEST-024",
                    "CDISC-TEST-024",
                    "CDISC-TEST-024",
                    "CDISC-TEST-024",
                    "CDISC-TEST-025",
                    "CDISC-TEST-025",
                    "CDISC-TEST-025",
                    "CDISC-TEST-025",
                    "CDISC-TEST-025",
                    "CDISC-TEST-025",
                    "CDISC-TEST-025",
                    "CDISC-TEST-025",
                    "CDISC-TEST-025",
                    "CDISC-TEST-025",
                    "CDISC-TEST-025",
                    "CDISC-TEST-025",
                    "CDISC-TEST-025",
                    "CDISC-TEST-025",
                    "CDISC-TEST-025",
                    "CDISC-TEST-025",
                    "CDISC-TEST-025",
                    "CDISC-TEST-025",
                    "CDISC-TEST-025",
                    "CDISC-TEST-026",
                    "CDISC-TEST-026",
                    "CDISC-TEST-026",
                    "CDISC-TEST-026",
                    "CDISC-TEST-026",
                    "CDISC-TEST-026",
                    "CDISC-TEST-026",
                    "CDISC-TEST-026",
                    "CDISC-TEST-026",
                    "CDISC-TEST-026",
                    "CDISC-TEST-026",
                    "CDISC-TEST-026",
                    "CDISC-TEST-027",
                    "CDISC-TEST-027",
                    "CDISC-TEST-027",
                    "CDISC-TEST-027",
                    "CDISC-TEST-027",
                    "CDISC-TEST-027",
                    "CDISC-TEST-027",
                    "CDISC-TEST-027",
                    "CDISC-TEST-027",
                    "CDISC-TEST-027",
                    "CDISC-TEST-027",
                    "CDISC-TEST-027",
                    "CDISC-TEST-027",
                    "CDISC-TEST-027",
                    "CDISC-TEST-027",
                    "CDISC-TEST-027",
                    "CDISC-TEST-027",
                    "CDISC-TEST-027",
                    "CDISC-TEST-027",
                    "CDISC-TEST-028",
                    "CDISC-TEST-028",
                    "CDISC-TEST-028",
                    "CDISC-TEST-028",
                    "CDISC-TEST-028",
                    "CDISC-TEST-028",
                    "CDISC-TEST-028",
                    "CDISC-TEST-028",
                    "CDISC-TEST-028",
                    "CDISC-TEST-028",
                    "CDISC-TEST-028",
                    "CDISC-TEST-028",
                    "CDISC-TEST-028",
                    "CDISC-TEST-028",
                    "CDISC-TEST-029",
                    "CDISC-TEST-029",
                    "CDISC-TEST-029",
                    "CDISC-TEST-029",
                    "CDISC-TEST-029",
                    "CDISC-TEST-029",
                    "CDISC-TEST-029",
                    "CDISC-TEST-029",
                    "CDISC-TEST-029",
                    "CDISC-TEST-029",
                    "CDISC-TEST-029",
                    "CDISC-TEST-029",
                    "CDISC-TEST-029",
                    "CDISC-TEST-029",
                    "CDISC-TEST-029",
                    "CDISC-TEST-029",
                    "CDISC-TEST-029",
                    "CDISC-TEST-029",
                    "CDISC-TEST-029",
                    "CDISC-TEST-029",
                    "CDISC-TEST-030",
                    "CDISC-TEST-030",
                    "CDISC-TEST-030",
                    "CDISC-TEST-030",
                    "CDISC-TEST-030",
                    "CDISC-TEST-030",
                    "CDISC-TEST-030",
                    "CDISC-TEST-030",
                    "CDISC-TEST-030",
                    "CDISC-TEST-030",
                    "CDISC-TEST-030",
                    "CDISC-TEST-030",
                    "CDISC-TEST-030",
                    "CDISC-TEST-030",
                    "CDISC-TEST-030",
                    "CDISC-TEST-030",
                    "CDISC-TEST-030",
                    "CDISC-TEST-031",
                    "CDISC-TEST-031",
                    "CDISC-TEST-031",
                    "CDISC-TEST-031",
                    "CDISC-TEST-031",
                    "CDISC-TEST-031",
                    "CDISC-TEST-031",
                    "CDISC-TEST-031",
                    "CDISC-TEST-031",
                    "CDISC-TEST-031",
                    "CDISC-TEST-031",
                    "CDISC-TEST-031",
                    "CDISC-TEST-031",
                    "CDISC-TEST-031",
                    "CDISC-TEST-032",
                    "CDISC-TEST-032",
                    "CDISC-TEST-032",
                    "CDISC-TEST-032",
                    "CDISC-TEST-032",
                    "CDISC-TEST-032",
                    "CDISC-TEST-032",
                    "CDISC-TEST-032",
                    "CDISC-TEST-032",
                    "CDISC-TEST-032",
                    "CDISC-TEST-032",
                    "CDISC-TEST-032",
                    "CDISC-TEST-032",
                    "CDISC-TEST-032",
                    "CDISC-TEST-032",
                    "CDISC-TEST-032",
                    "CDISC-TEST-032",
                    "CDISC-TEST-032",
                    "CDISC-TEST-032",
                    "CDISC-TEST-032",
                    "CDISC-TEST-033",
                    "CDISC-TEST-033",
                    "CDISC-TEST-033",
                    "CDISC-TEST-033",
                    "CDISC-TEST-033",
                    "CDISC-TEST-033",
                    "CDISC-TEST-033",
                    "CDISC-TEST-033",
                    "CDISC-TEST-033",
                    "CDISC-TEST-033",
                    "CDISC-TEST-033",
                    "CDISC-TEST-033",
                    "CDISC-TEST-033",
                    "CDISC-TEST-034",
                    "CDISC-TEST-034",
                    "CDISC-TEST-034",
                    "CDISC-TEST-034",
                    "CDISC-TEST-034",
                    "CDISC-TEST-034",
                    "CDISC-TEST-034",
                    "CDISC-TEST-034",
                    "CDISC-TEST-034",
                    "CDISC-TEST-034",
                    "CDISC-TEST-034",
                    "CDISC-TEST-034",
                    "CDISC-TEST-034",
                    "CDISC-TEST-034",
                    "CDISC-TEST-034",
                    "CDISC-TEST-035",
                    "CDISC-TEST-035",
                    "CDISC-TEST-035",
                    "CDISC-TEST-035",
                    "CDISC-TEST-035",
                    "CDISC-TEST-035",
                    "CDISC-TEST-035",
                    "CDISC-TEST-035",
                    "CDISC-TEST-035",
                    "CDISC-TEST-035",
                    "CDISC-TEST-035",
                    "CDISC-TEST-035",
                    "CDISC-TEST-035",
                    "CDISC-TEST-035",
                    "CDISC-TEST-035",
                    "CDISC-TEST-035",
                    "CDISC-TEST-036",
                    "CDISC-TEST-036",
                    "CDISC-TEST-036",
                    "CDISC-TEST-036",
                    "CDISC-TEST-036",
                    "CDISC-TEST-036",
                    "CDISC-TEST-036",
                    "CDISC-TEST-036",
                    "CDISC-TEST-036",
                    "CDISC-TEST-036",
                    "CDISC-TEST-036",
                    "CDISC-TEST-036",
                    "CDISC-TEST-036",
                    "CDISC-TEST-036",
                    "CDISC-TEST-036",
                    "CDISC-TEST-037",
                    "CDISC-TEST-037",
                    "CDISC-TEST-037",
                    "CDISC-TEST-037",
                    "CDISC-TEST-037",
                    "CDISC-TEST-037",
                    "CDISC-TEST-037",
                    "CDISC-TEST-037",
                    "CDISC-TEST-037",
                    "CDISC-TEST-037",
                    "CDISC-TEST-037",
                    "CDISC-TEST-037",
                    "CDISC-TEST-037",
                    "CDISC-TEST-037",
                    "CDISC-TEST-037",
                    "CDISC-TEST-037",
                    "CDISC-TEST-038",
                    "CDISC-TEST-038",
                    "CDISC-TEST-038",
                    "CDISC-TEST-038",
                    "CDISC-TEST-038",
                    "CDISC-TEST-038",
                    "CDISC-TEST-038",
                    "CDISC-TEST-038",
                    "CDISC-TEST-038",
                    "CDISC-TEST-038",
                    "CDISC-TEST-038",
                    "CDISC-TEST-038",
                    "CDISC-TEST-038",
                    "CDISC-TEST-038",
                    "CDISC-TEST-039",
                    "CDISC-TEST-039",
                    "CDISC-TEST-039",
                    "CDISC-TEST-039",
                    "CDISC-TEST-039",
                    "CDISC-TEST-039",
                    "CDISC-TEST-039",
                    "CDISC-TEST-039",
                    "CDISC-TEST-039",
                    "CDISC-TEST-039",
                    "CDISC-TEST-039",
                    "CDISC-TEST-039",
                    "CDISC-TEST-039",
                    "CDISC-TEST-039",
                    "CDISC-TEST-039",
                    "CDISC-TEST-039",
                    "CDISC-TEST-039",
                    "CDISC-TEST-039",
                    "CDISC-TEST-040",
                    "CDISC-TEST-040",
                    "CDISC-TEST-040",
                    "CDISC-TEST-040",
                    "CDISC-TEST-040",
                    "CDISC-TEST-040",
                    "CDISC-TEST-040",
                    "CDISC-TEST-040",
                    "CDISC-TEST-040",
                    "CDISC-TEST-040",
                    "CDISC-TEST-040",
                    "CDISC-TEST-040",
                    "CDISC-TEST-040",
                    "CDISC-TEST-040",
                    "CDISC-TEST-040",
                    "CDISC-TEST-040",
                    "CDISC-TEST-040",
                    "CDISC-TEST-041",
                    "CDISC-TEST-041",
                    "CDISC-TEST-041",
                    "CDISC-TEST-041",
                    "CDISC-TEST-041",
                    "CDISC-TEST-041",
                    "CDISC-TEST-041",
                    "CDISC-TEST-041",
                    "CDISC-TEST-041",
                    "CDISC-TEST-041",
                    "CDISC-TEST-041",
                    "CDISC-TEST-041",
                    "CDISC-TEST-041",
                    "CDISC-TEST-041",
                    "CDISC-TEST-042",
                    "CDISC-TEST-042",
                    "CDISC-TEST-042",
                    "CDISC-TEST-042",
                    "CDISC-TEST-042",
                    "CDISC-TEST-042",
                    "CDISC-TEST-042",
                    "CDISC-TEST-042",
                    "CDISC-TEST-042",
                    "CDISC-TEST-042",
                    "CDISC-TEST-042",
                    "CDISC-TEST-042",
                    "CDISC-TEST-042",
                    "CDISC-TEST-043",
                    "CDISC-TEST-043",
                    "CDISC-TEST-043",
                    "CDISC-TEST-043",
                    "CDISC-TEST-043",
                    "CDISC-TEST-043",
                    "CDISC-TEST-043",
                    "CDISC-TEST-043",
                    "CDISC-TEST-043",
                    "CDISC-TEST-043",
                    "CDISC-TEST-043",
                    "CDISC-TEST-043",
                    "CDISC-TEST-043",
                    "CDISC-TEST-043",
                    "CDISC-TEST-043",
                    "CDISC-TEST-043",
                    "CDISC-TEST-044",
                    "CDISC-TEST-044",
                    "CDISC-TEST-044",
                    "CDISC-TEST-044",
                    "CDISC-TEST-044",
                    "CDISC-TEST-044",
                    "CDISC-TEST-044",
                    "CDISC-TEST-044",
                    "CDISC-TEST-044",
                    "CDISC-TEST-044",
                    "CDISC-TEST-044",
                    "CDISC-TEST-044",
                    "CDISC-TEST-044",
                    "CDISC-TEST-044",
                    "CDISC-TEST-044",
                    "CDISC-TEST-044",
                    "CDISC-TEST-044",
                    "CDISC-TEST-044",
                    "CDISC-TEST-045",
                    "CDISC-TEST-045",
                    "CDISC-TEST-045",
                    "CDISC-TEST-045",
                    "CDISC-TEST-045",
                    "CDISC-TEST-045",
                    "CDISC-TEST-045",
                    "CDISC-TEST-045",
                    "CDISC-TEST-045",
                    "CDISC-TEST-045",
                    "CDISC-TEST-045",
                    "CDISC-TEST-045",
                    "CDISC-TEST-045",
                    "CDISC-TEST-045",
                    "CDISC-TEST-045",
                    "CDISC-TEST-045",
                    "CDISC-TEST-045",
                    "CDISC-TEST-045",
                    "CDISC-TEST-045",
                    "CDISC-TEST-046",
                    "CDISC-TEST-046",
                    "CDISC-TEST-046",
                    "CDISC-TEST-046",
                    "CDISC-TEST-046",
                    "CDISC-TEST-046",
                    "CDISC-TEST-046",
                    "CDISC-TEST-046",
                    "CDISC-TEST-046",
                    "CDISC-TEST-046",
                    "CDISC-TEST-046",
                    "CDISC-TEST-046",
                    "CDISC-TEST-046",
                    "CDISC-TEST-046",
                    "CDISC-TEST-046",
                    "CDISC-TEST-046",
                    "CDISC-TEST-046",
                    "CDISC-TEST-046",
                    "CDISC-TEST-046",
                    "CDISC-TEST-047",
                    "CDISC-TEST-047",
                    "CDISC-TEST-047",
                    "CDISC-TEST-047",
                    "CDISC-TEST-047",
                    "CDISC-TEST-047",
                    "CDISC-TEST-047",
                    "CDISC-TEST-047",
                    "CDISC-TEST-047",
                    "CDISC-TEST-047",
                    "CDISC-TEST-047",
                    "CDISC-TEST-047",
                    "CDISC-TEST-047",
                    "CDISC-TEST-047",
                    "CDISC-TEST-048",
                    "CDISC-TEST-048",
                    "CDISC-TEST-048",
                    "CDISC-TEST-048",
                    "CDISC-TEST-048",
                    "CDISC-TEST-048",
                    "CDISC-TEST-048",
                    "CDISC-TEST-048",
                    "CDISC-TEST-048",
                    "CDISC-TEST-048",
                    "CDISC-TEST-048",
                    "CDISC-TEST-048",
                    "CDISC-TEST-048",
                    "CDISC-TEST-048",
                    "CDISC-TEST-048",
                    "CDISC-TEST-048",
                    "CDISC-TEST-048",
                    "CDISC-TEST-048",
                    "CDISC-TEST-048",
                    "CDISC-TEST-048",
                    "CDISC-TEST-049",
                    "CDISC-TEST-049",
                    "CDISC-TEST-049",
                    "CDISC-TEST-049",
                    "CDISC-TEST-049",
                    "CDISC-TEST-049",
                    "CDISC-TEST-049",
                    "CDISC-TEST-049",
                    "CDISC-TEST-049",
                    "CDISC-TEST-049",
                    "CDISC-TEST-049",
                    "CDISC-TEST-049",
                    "CDISC-TEST-049",
                    "CDISC-TEST-049",
                    "CDISC-TEST-049",
                    "CDISC-TEST-049",
                    "CDISC-TEST-049",
                    "CDISC-TEST-049",
                    "CDISC-TEST-049",
                    "CDISC-TEST-050",
                    "CDISC-TEST-050",
                    "CDISC-TEST-050",
                    "CDISC-TEST-050",
                    "CDISC-TEST-050",
                    "CDISC-TEST-050",
                    "CDISC-TEST-050",
                    "CDISC-TEST-050",
                    "CDISC-TEST-050",
                    "CDISC-TEST-050",
                    "CDISC-TEST-050",
                    "CDISC-TEST-050",
                    "CDISC-TEST-050",
                    "CDISC-TEST-050",
                    "CDISC-TEST-050",
                    "CDISC-TEST-050",
                    "CDISC-TEST-050",
                    "CDISC-TEST-050",
                    "CDISC-TEST-050",
                    "CDISC-TEST-050",
                    "CDISC-TEST-050",
                    "CDISC-TEST-051",
                    "CDISC-TEST-051",
                    "CDISC-TEST-051",
                    "CDISC-TEST-051",
                    "CDISC-TEST-051",
                    "CDISC-TEST-051",
                    "CDISC-TEST-051",
                    "CDISC-TEST-051",
                    "CDISC-TEST-051",
                    "CDISC-TEST-051",
                    "CDISC-TEST-051",
                    "CDISC-TEST-051",
                    "CDISC-TEST-051",
                    "CDISC-TEST-051",
                    "CDISC-TEST-051",
                    "CDISC-TEST-052",
                    "CDISC-TEST-052",
                    "CDISC-TEST-052",
                    "CDISC-TEST-052",
                    "CDISC-TEST-052",
                    "CDISC-TEST-052",
                    "CDISC-TEST-052",
                    "CDISC-TEST-052",
                    "CDISC-TEST-052",
                    "CDISC-TEST-052",
                    "CDISC-TEST-052",
                    "CDISC-TEST-052",
                    "CDISC-TEST-052",
                    "CDISC-TEST-052",
                    "CDISC-TEST-052",
                    "CDISC-TEST-052",
                    "CDISC-TEST-052",
                    "CDISC-TEST-053",
                    "CDISC-TEST-053",
                    "CDISC-TEST-053",
                    "CDISC-TEST-053",
                    "CDISC-TEST-053",
                    "CDISC-TEST-053",
                    "CDISC-TEST-053",
                    "CDISC-TEST-053",
                    "CDISC-TEST-053",
                    "CDISC-TEST-053",
                    "CDISC-TEST-053",
                    "CDISC-TEST-053",
                    "CDISC-TEST-053",
                    "CDISC-TEST-053",
                    "CDISC-TEST-054",
                    "CDISC-TEST-054",
                    "CDISC-TEST-054",
                    "CDISC-TEST-054",
                    "CDISC-TEST-054",
                    "CDISC-TEST-054",
                    "CDISC-TEST-054",
                    "CDISC-TEST-054",
                    "CDISC-TEST-054",
                    "CDISC-TEST-054",
                    "CDISC-TEST-054",
                    "CDISC-TEST-054",
                    "CDISC-TEST-054",
                    "CDISC-TEST-054",
                    "CDISC-TEST-054",
                    "CDISC-TEST-055",
                    "CDISC-TEST-055",
                    "CDISC-TEST-055",
                    "CDISC-TEST-055",
                    "CDISC-TEST-055",
                    "CDISC-TEST-055",
                    "CDISC-TEST-055",
                    "CDISC-TEST-055",
                    "CDISC-TEST-055",
                    "CDISC-TEST-055",
                    "CDISC-TEST-055",
                    "CDISC-TEST-055",
                    "CDISC-TEST-055",
                    "CDISC-TEST-055",
                    "CDISC-TEST-055",
                    "CDISC-TEST-055",
                    "CDISC-TEST-055",
                    "CDISC-TEST-055",
                    "CDISC-TEST-055",
                    "CDISC-TEST-056",
                    "CDISC-TEST-056",
                    "CDISC-TEST-056",
                    "CDISC-TEST-056",
                    "CDISC-TEST-056",
                    "CDISC-TEST-056",
                    "CDISC-TEST-056",
                    "CDISC-TEST-056",
                    "CDISC-TEST-056",
                    "CDISC-TEST-056",
                    "CDISC-TEST-056",
                    "CDISC-TEST-056",
                    "CDISC-TEST-056",
                    "CDISC-TEST-056",
                    "CDISC-TEST-056",
                    "CDISC-TEST-057",
                    "CDISC-TEST-057",
                    "CDISC-TEST-057",
                    "CDISC-TEST-057",
                    "CDISC-TEST-057",
                    "CDISC-TEST-057",
                    "CDISC-TEST-057",
                    "CDISC-TEST-057",
                    "CDISC-TEST-057",
                    "CDISC-TEST-057",
                    "CDISC-TEST-057",
                    "CDISC-TEST-057",
                    "CDISC-TEST-057",
                    "CDISC-TEST-058",
                    "CDISC-TEST-058",
                    "CDISC-TEST-058",
                    "CDISC-TEST-058",
                    "CDISC-TEST-058",
                    "CDISC-TEST-058",
                    "CDISC-TEST-058",
                    "CDISC-TEST-058",
                    "CDISC-TEST-058",
                    "CDISC-TEST-058",
                    "CDISC-TEST-058",
                    "CDISC-TEST-058",
                    "CDISC-TEST-058",
                    "CDISC-TEST-058",
                    "CDISC-TEST-058",
                    "CDISC-TEST-059",
                    "CDISC-TEST-059",
                    "CDISC-TEST-059",
                    "CDISC-TEST-059",
                    "CDISC-TEST-059",
                    "CDISC-TEST-059",
                    "CDISC-TEST-059",
                    "CDISC-TEST-059",
                    "CDISC-TEST-059",
                    "CDISC-TEST-059",
                    "CDISC-TEST-059",
                    "CDISC-TEST-059",
                    "CDISC-TEST-059",
                    "CDISC-TEST-059",
                    "CDISC-TEST-059",
                    "CDISC-TEST-059",
                    "CDISC-TEST-059",
                    "CDISC-TEST-059",
                    "CDISC-TEST-059",
                    "CDISC-TEST-059",
                    "CDISC-TEST-060",
                    "CDISC-TEST-060",
                    "CDISC-TEST-060",
                    "CDISC-TEST-060",
                    "CDISC-TEST-060",
                    "CDISC-TEST-060",
                    "CDISC-TEST-060",
                    "CDISC-TEST-060",
                    "CDISC-TEST-060",
                    "CDISC-TEST-060",
                    "CDISC-TEST-060",
                    "CDISC-TEST-060",
                    "CDISC-TEST-060",
                    "CDISC-TEST-060",
                    "CDISC-TEST-061",
                    "CDISC-TEST-061",
                    "CDISC-TEST-061",
                    "CDISC-TEST-061",
                    "CDISC-TEST-061",
                    "CDISC-TEST-061",
                    "CDISC-TEST-061",
                    "CDISC-TEST-061",
                    "CDISC-TEST-061",
                    "CDISC-TEST-061",
                    "CDISC-TEST-061",
                    "CDISC-TEST-061",
                    "CDISC-TEST-061",
                    "CDISC-TEST-061",
                    "CDISC-TEST-061",
                    "CDISC-TEST-061",
                    "CDISC-TEST-061",
                    "CDISC-TEST-061",
                    "CDISC-TEST-061",
                    "CDISC-TEST-061",
                    "CDISC-TEST-062",
                    "CDISC-TEST-062",
                    "CDISC-TEST-062",
                    "CDISC-TEST-062",
                    "CDISC-TEST-062",
                    "CDISC-TEST-062",
                    "CDISC-TEST-062",
                    "CDISC-TEST-062",
                    "CDISC-TEST-062",
                    "CDISC-TEST-062",
                    "CDISC-TEST-062",
                    "CDISC-TEST-062",
                    "CDISC-TEST-062",
                    "CDISC-TEST-062",
                    "CDISC-TEST-062",
                    "CDISC-TEST-062",
                    "CDISC-TEST-062",
                    "CDISC-TEST-063",
                    "CDISC-TEST-063",
                    "CDISC-TEST-063",
                    "CDISC-TEST-063",
                    "CDISC-TEST-063",
                    "CDISC-TEST-063",
                    "CDISC-TEST-063",
                    "CDISC-TEST-063",
                    "CDISC-TEST-063",
                    "CDISC-TEST-063",
                    "CDISC-TEST-063",
                    "CDISC-TEST-063",
                    "CDISC-TEST-063",
                    "CDISC-TEST-063",
                    "CDISC-TEST-063",
                    "CDISC-TEST-063",
                    "CDISC-TEST-063",
                    "CDISC-TEST-064",
                    "CDISC-TEST-064",
                    "CDISC-TEST-064",
                    "CDISC-TEST-064",
                    "CDISC-TEST-064",
                    "CDISC-TEST-064",
                    "CDISC-TEST-064",
                    "CDISC-TEST-064",
                    "CDISC-TEST-064",
                    "CDISC-TEST-064",
                    "CDISC-TEST-064",
                    "CDISC-TEST-064",
                    "CDISC-TEST-064",
                    "CDISC-TEST-064",
                    "CDISC-TEST-064",
                    "CDISC-TEST-064",
                    "CDISC-TEST-065",
                    "CDISC-TEST-065",
                    "CDISC-TEST-065",
                    "CDISC-TEST-065",
                    "CDISC-TEST-065",
                    "CDISC-TEST-065",
                    "CDISC-TEST-065",
                    "CDISC-TEST-065",
                    "CDISC-TEST-065",
                    "CDISC-TEST-065",
                    "CDISC-TEST-065",
                    "CDISC-TEST-065",
                    "CDISC-TEST-065",
                    "CDISC-TEST-066",
                    "CDISC-TEST-066",
                    "CDISC-TEST-066",
                    "CDISC-TEST-066",
                    "CDISC-TEST-066",
                    "CDISC-TEST-066",
                    "CDISC-TEST-066",
                    "CDISC-TEST-066",
                    "CDISC-TEST-066",
                    "CDISC-TEST-066",
                    "CDISC-TEST-066",
                    "CDISC-TEST-066",
                    "CDISC-TEST-067",
                    "CDISC-TEST-067",
                    "CDISC-TEST-067",
                    "CDISC-TEST-067",
                    "CDISC-TEST-067",
                    "CDISC-TEST-067",
                    "CDISC-TEST-067",
                    "CDISC-TEST-067",
                    "CDISC-TEST-067",
                    "CDISC-TEST-067",
                    "CDISC-TEST-067",
                    "CDISC-TEST-067",
                    "CDISC-TEST-067",
                    "CDISC-TEST-067",
                    "CDISC-TEST-067",
                    "CDISC-TEST-067",
                    "CDISC-TEST-068",
                    "CDISC-TEST-068",
                    "CDISC-TEST-068",
                    "CDISC-TEST-068",
                    "CDISC-TEST-068",
                    "CDISC-TEST-068",
                    "CDISC-TEST-068",
                    "CDISC-TEST-068",
                    "CDISC-TEST-068",
                    "CDISC-TEST-068",
                    "CDISC-TEST-068",
                    "CDISC-TEST-068",
                    "CDISC-TEST-068",
                    "CDISC-TEST-068",
                    "CDISC-TEST-068",
                    "CDISC-TEST-068",
                    "CDISC-TEST-068",
                    "CDISC-TEST-068",
                    "CDISC-TEST-068",
                    "CDISC-TEST-069",
                    "CDISC-TEST-069",
                    "CDISC-TEST-069",
                    "CDISC-TEST-069",
                    "CDISC-TEST-069",
                    "CDISC-TEST-069",
                    "CDISC-TEST-069",
                    "CDISC-TEST-069",
                    "CDISC-TEST-069",
                    "CDISC-TEST-069",
                    "CDISC-TEST-069",
                    "CDISC-TEST-069",
                    "CDISC-TEST-070",
                    "CDISC-TEST-070",
                    "CDISC-TEST-070",
                    "CDISC-TEST-070",
                    "CDISC-TEST-070",
                    "CDISC-TEST-070",
                    "CDISC-TEST-070",
                    "CDISC-TEST-070",
                    "CDISC-TEST-070",
                    "CDISC-TEST-070",
                    "CDISC-TEST-070",
                    "CDISC-TEST-070",
                    "CDISC-TEST-070",
                    "CDISC-TEST-070",
                    "CDISC-TEST-070",
                    "CDISC-TEST-071",
                    "CDISC-TEST-071",
                    "CDISC-TEST-071",
                    "CDISC-TEST-071",
                    "CDISC-TEST-071",
                    "CDISC-TEST-071",
                    "CDISC-TEST-071",
                    "CDISC-TEST-071",
                    "CDISC-TEST-071",
                    "CDISC-TEST-071",
                    "CDISC-TEST-071",
                    "CDISC-TEST-071",
                    "CDISC-TEST-071",
                    "CDISC-TEST-071",
                    "CDISC-TEST-071",
                    "CDISC-TEST-071",
                    "CDISC-TEST-071",
                    "CDISC-TEST-071",
                    "CDISC-TEST-071",
                    "CDISC-TEST-071",
                    "CDISC-TEST-072",
                    "CDISC-TEST-072",
                    "CDISC-TEST-072",
                    "CDISC-TEST-072",
                    "CDISC-TEST-072",
                    "CDISC-TEST-072",
                    "CDISC-TEST-072",
                    "CDISC-TEST-072",
                    "CDISC-TEST-072",
                    "CDISC-TEST-072",
                    "CDISC-TEST-072",
                    "CDISC-TEST-072",
                    "CDISC-TEST-072",
                    "CDISC-TEST-072",
                    "CDISC-TEST-072",
                    "CDISC-TEST-072",
                    "CDISC-TEST-072",
                    "CDISC-TEST-072",
                    "CDISC-TEST-072",
                    "CDISC-TEST-073",
                    "CDISC-TEST-073",
                    "CDISC-TEST-073",
                    "CDISC-TEST-073",
                    "CDISC-TEST-073",
                    "CDISC-TEST-073",
                    "CDISC-TEST-073",
                    "CDISC-TEST-073",
                    "CDISC-TEST-073",
                    "CDISC-TEST-073",
                    "CDISC-TEST-073",
                    "CDISC-TEST-073",
                    "CDISC-TEST-073",
                    "CDISC-TEST-073",
                    "CDISC-TEST-073",
                    "CDISC-TEST-074",
                    "CDISC-TEST-074",
                    "CDISC-TEST-074",
                    "CDISC-TEST-074",
                    "CDISC-TEST-074",
                    "CDISC-TEST-074",
                    "CDISC-TEST-074",
                    "CDISC-TEST-074",
                    "CDISC-TEST-074",
                    "CDISC-TEST-074",
                    "CDISC-TEST-074",
                    "CDISC-TEST-074",
                    "CDISC-TEST-074",
                    "CDISC-TEST-074",
                    "CDISC-TEST-074",
                    "CDISC-TEST-074",
                    "CDISC-TEST-075",
                    "CDISC-TEST-075",
                    "CDISC-TEST-075",
                    "CDISC-TEST-075",
                    "CDISC-TEST-075",
                    "CDISC-TEST-075",
                    "CDISC-TEST-075",
                    "CDISC-TEST-075",
                    "CDISC-TEST-075",
                    "CDISC-TEST-076",
                    "CDISC-TEST-076",
                    "CDISC-TEST-076",
                    "CDISC-TEST-076",
                    "CDISC-TEST-076",
                    "CDISC-TEST-076",
                    "CDISC-TEST-076",
                    "CDISC-TEST-076",
                    "CDISC-TEST-076",
                    "CDISC-TEST-076",
                    "CDISC-TEST-076",
                    "CDISC-TEST-076",
                    "CDISC-TEST-076",
                    "CDISC-TEST-076",
                    "CDISC-TEST-076",
                    "CDISC-TEST-076",
                    "CDISC-TEST-076",
                    "CDISC-TEST-076",
                    "CDISC-TEST-076",
                    "CDISC-TEST-077",
                    "CDISC-TEST-077",
                    "CDISC-TEST-077",
                    "CDISC-TEST-077",
                    "CDISC-TEST-077",
                    "CDISC-TEST-077",
                    "CDISC-TEST-077",
                    "CDISC-TEST-077",
                    "CDISC-TEST-077",
                    "CDISC-TEST-077",
                    "CDISC-TEST-077",
                    "CDISC-TEST-077",
                    "CDISC-TEST-077",
                    "CDISC-TEST-077",
                    "CDISC-TEST-077",
                    "CDISC-TEST-077",
                    "CDISC-TEST-077",
                    "CDISC-TEST-077",
                    "CDISC-TEST-077",
                    "CDISC-TEST-077",
                    "CDISC-TEST-078",
                    "CDISC-TEST-078",
                    "CDISC-TEST-078",
                    "CDISC-TEST-078",
                    "CDISC-TEST-078",
                    "CDISC-TEST-078",
                    "CDISC-TEST-078",
                    "CDISC-TEST-078",
                    "CDISC-TEST-078",
                    "CDISC-TEST-078",
                    "CDISC-TEST-078",
                    "CDISC-TEST-078",
                    "CDISC-TEST-078",
                    "CDISC-TEST-078",
                    "CDISC-TEST-078",
                    "CDISC-TEST-078",
                    "CDISC-TEST-078",
                    "CDISC-TEST-078",
                    "CDISC-TEST-079",
                    "CDISC-TEST-079",
                    "CDISC-TEST-079",
                    "CDISC-TEST-079",
                    "CDISC-TEST-079",
                    "CDISC-TEST-079",
                    "CDISC-TEST-079",
                    "CDISC-TEST-079",
                    "CDISC-TEST-079",
                    "CDISC-TEST-079",
                    "CDISC-TEST-079",
                    "CDISC-TEST-079",
                    "CDISC-TEST-079",
                    "CDISC-TEST-079",
                    "CDISC-TEST-080",
                    "CDISC-TEST-080",
                    "CDISC-TEST-080",
                    "CDISC-TEST-080",
                    "CDISC-TEST-080",
                    "CDISC-TEST-080",
                    "CDISC-TEST-080",
                    "CDISC-TEST-080",
                    "CDISC-TEST-080",
                    "CDISC-TEST-080",
                    "CDISC-TEST-080",
                    "CDISC-TEST-080",
                    "CDISC-TEST-081",
                    "CDISC-TEST-081",
                    "CDISC-TEST-081",
                    "CDISC-TEST-081",
                    "CDISC-TEST-081",
                    "CDISC-TEST-081",
                    "CDISC-TEST-081",
                    "CDISC-TEST-081",
                    "CDISC-TEST-081",
                    "CDISC-TEST-081",
                    "CDISC-TEST-081",
                    "CDISC-TEST-081",
                    "CDISC-TEST-081",
                    "CDISC-TEST-081",
                    "CDISC-TEST-082",
                    "CDISC-TEST-082",
                    "CDISC-TEST-082",
                    "CDISC-TEST-082",
                    "CDISC-TEST-082",
                    "CDISC-TEST-082",
                    "CDISC-TEST-082",
                    "CDISC-TEST-082",
                    "CDISC-TEST-082",
                    "CDISC-TEST-082",
                    "CDISC-TEST-082",
                    "CDISC-TEST-082",
                    "CDISC-TEST-082",
                    "CDISC-TEST-082",
                    "CDISC-TEST-083",
                    "CDISC-TEST-083",
                    "CDISC-TEST-083",
                    "CDISC-TEST-083",
                    "CDISC-TEST-083",
                    "CDISC-TEST-083",
                    "CDISC-TEST-083",
                    "CDISC-TEST-083",
                    "CDISC-TEST-083",
                    "CDISC-TEST-083",
                    "CDISC-TEST-083",
                    "CDISC-TEST-083",
                    "CDISC-TEST-083",
                    "CDISC-TEST-083",
                    "CDISC-TEST-083",
                    "CDISC-TEST-083",
                    "CDISC-TEST-083",
                    "CDISC-TEST-083",
                    "CDISC-TEST-083",
                    "CDISC-TEST-084",
                    "CDISC-TEST-084",
                    "CDISC-TEST-084",
                    "CDISC-TEST-084",
                    "CDISC-TEST-084",
                    "CDISC-TEST-084",
                    "CDISC-TEST-084",
                    "CDISC-TEST-084",
                    "CDISC-TEST-084",
                    "CDISC-TEST-084",
                    "CDISC-TEST-084",
                    "CDISC-TEST-084",
                    "CDISC-TEST-084",
                    "CDISC-TEST-084",
                    "CDISC-TEST-084",
                    "CDISC-TEST-085",
                    "CDISC-TEST-085",
                    "CDISC-TEST-085",
                    "CDISC-TEST-085",
                    "CDISC-TEST-085",
                    "CDISC-TEST-085",
                    "CDISC-TEST-085",
                    "CDISC-TEST-085",
                    "CDISC-TEST-085",
                    "CDISC-TEST-085",
                    "CDISC-TEST-085",
                    "CDISC-TEST-085",
                    "CDISC-TEST-085",
                    "CDISC-TEST-085",
                    "CDISC-TEST-086",
                    "CDISC-TEST-086",
                    "CDISC-TEST-086",
                    "CDISC-TEST-086",
                    "CDISC-TEST-086",
                    "CDISC-TEST-086",
                    "CDISC-TEST-086",
                    "CDISC-TEST-086",
                    "CDISC-TEST-086",
                    "CDISC-TEST-086",
                    "CDISC-TEST-086",
                    "CDISC-TEST-086",
                    "CDISC-TEST-086",
                    "CDISC-TEST-086",
                    "CDISC-TEST-086",
                    "CDISC-TEST-086",
                    "CDISC-TEST-086",
                    "CDISC-TEST-086",
                    "CDISC-TEST-086",
                    "CDISC-TEST-087",
                    "CDISC-TEST-087",
                    "CDISC-TEST-087",
                    "CDISC-TEST-087",
                    "CDISC-TEST-087",
                    "CDISC-TEST-087",
                    "CDISC-TEST-087",
                    "CDISC-TEST-087",
                    "CDISC-TEST-087",
                    "CDISC-TEST-087",
                    "CDISC-TEST-087",
                    "CDISC-TEST-087",
                    "CDISC-TEST-087",
                    "CDISC-TEST-088",
                    "CDISC-TEST-088",
                    "CDISC-TEST-088",
                    "CDISC-TEST-088",
                    "CDISC-TEST-088",
                    "CDISC-TEST-088",
                    "CDISC-TEST-088",
                    "CDISC-TEST-088",
                    "CDISC-TEST-088",
                    "CDISC-TEST-088",
                    "CDISC-TEST-088",
                    "CDISC-TEST-088",
                    "CDISC-TEST-088",
                    "CDISC-TEST-089",
                    "CDISC-TEST-089",
                    "CDISC-TEST-089",
                    "CDISC-TEST-089",
                    "CDISC-TEST-089",
                    "CDISC-TEST-089",
                    "CDISC-TEST-089",
                    "CDISC-TEST-089",
                    "CDISC-TEST-089",
                    "CDISC-TEST-089",
                    "CDISC-TEST-089",
                    "CDISC-TEST-089",
                    "CDISC-TEST-089",
                    "CDISC-TEST-089",
                    "CDISC-TEST-089",
                    "CDISC-TEST-089",
                    "CDISC-TEST-089",
                    "CDISC-TEST-090",
                    "CDISC-TEST-090",
                    "CDISC-TEST-090",
                    "CDISC-TEST-090",
                    "CDISC-TEST-090",
                    "CDISC-TEST-090",
                    "CDISC-TEST-090",
                    "CDISC-TEST-090",
                    "CDISC-TEST-090",
                    "CDISC-TEST-090",
                    "CDISC-TEST-090",
                    "CDISC-TEST-090",
                    "CDISC-TEST-090",
                    "CDISC-TEST-090",
                    "CDISC-TEST-090",
                    "CDISC-TEST-090",
                    "CDISC-TEST-090",
                    "CDISC-TEST-090",
                    "CDISC-TEST-090",
                    "CDISC-TEST-090",
                    "CDISC-TEST-091",
                    "CDISC-TEST-091",
                    "CDISC-TEST-091",
                    "CDISC-TEST-091",
                    "CDISC-TEST-091",
                    "CDISC-TEST-091",
                    "CDISC-TEST-091",
                    "CDISC-TEST-091",
                    "CDISC-TEST-091",
                    "CDISC-TEST-091",
                    "CDISC-TEST-091",
                    "CDISC-TEST-091",
                    "CDISC-TEST-091",
                    "CDISC-TEST-091",
                    "CDISC-TEST-091",
                    "CDISC-TEST-092",
                    "CDISC-TEST-092",
                    "CDISC-TEST-092",
                    "CDISC-TEST-092",
                    "CDISC-TEST-092",
                    "CDISC-TEST-092",
                    "CDISC-TEST-092",
                    "CDISC-TEST-092",
                    "CDISC-TEST-092",
                    "CDISC-TEST-092",
                    "CDISC-TEST-092",
                    "CDISC-TEST-092",
                    "CDISC-TEST-092",
                    "CDISC-TEST-092",
                    "CDISC-TEST-092",
                    "CDISC-TEST-092",
                    "CDISC-TEST-092",
                    "CDISC-TEST-092",
                    "CDISC-TEST-092",
                    "CDISC-TEST-093",
                    "CDISC-TEST-093",
                    "CDISC-TEST-093",
                    "CDISC-TEST-093",
                    "CDISC-TEST-093",
                    "CDISC-TEST-093",
                    "CDISC-TEST-093",
                    "CDISC-TEST-093",
                    "CDISC-TEST-093",
                    "CDISC-TEST-093",
                    "CDISC-TEST-093",
                    "CDISC-TEST-093",
                    "CDISC-TEST-093",
                    "CDISC-TEST-093",
                    "CDISC-TEST-093",
                    "CDISC-TEST-093",
                    "CDISC-TEST-093",
                    "CDISC-TEST-093",
                    "CDISC-TEST-094",
                    "CDISC-TEST-094",
                    "CDISC-TEST-094",
                    "CDISC-TEST-094",
                    "CDISC-TEST-094",
                    "CDISC-TEST-094",
                    "CDISC-TEST-094",
                    "CDISC-TEST-094",
                    "CDISC-TEST-094",
                    "CDISC-TEST-094",
                    "CDISC-TEST-094",
                    "CDISC-TEST-094",
                    "CDISC-TEST-094",
                    "CDISC-TEST-094",
                    "CDISC-TEST-094",
                    "CDISC-TEST-094",
                    "CDISC-TEST-094",
                    "CDISC-TEST-094",
                    "CDISC-TEST-094",
                    "CDISC-TEST-094",
                    "CDISC-TEST-095",
                    "CDISC-TEST-095",
                    "CDISC-TEST-095",
                    "CDISC-TEST-095",
                    "CDISC-TEST-095",
                    "CDISC-TEST-095",
                    "CDISC-TEST-095",
                    "CDISC-TEST-095",
                    "CDISC-TEST-095",
                    "CDISC-TEST-096",
                    "CDISC-TEST-096",
                    "CDISC-TEST-096",
                    "CDISC-TEST-096",
                    "CDISC-TEST-096",
                    "CDISC-TEST-096",
                    "CDISC-TEST-096",
                    "CDISC-TEST-096",
                    "CDISC-TEST-096",
                    "CDISC-TEST-096",
                    "CDISC-TEST-096",
                    "CDISC-TEST-096",
                    "CDISC-TEST-096",
                    "CDISC-TEST-096",
                    "CDISC-TEST-096",
                    "CDISC-TEST-096",
                    "CDISC-TEST-096",
                    "CDISC-TEST-097",
                    "CDISC-TEST-097",
                    "CDISC-TEST-097",
                    "CDISC-TEST-097",
                    "CDISC-TEST-097",
                    "CDISC-TEST-097",
                    "CDISC-TEST-097",
                    "CDISC-TEST-097",
                    "CDISC-TEST-097",
                    "CDISC-TEST-097",
                    "CDISC-TEST-097",
                    "CDISC-TEST-097",
                    "CDISC-TEST-097",
                    "CDISC-TEST-097",
                    "CDISC-TEST-097",
                    "CDISC-TEST-097",
                    "CDISC-TEST-098",
                    "CDISC-TEST-098",
                    "CDISC-TEST-098",
                    "CDISC-TEST-098",
                    "CDISC-TEST-098",
                    "CDISC-TEST-098",
                    "CDISC-TEST-098",
                    "CDISC-TEST-098",
                    "CDISC-TEST-098",
                    "CDISC-TEST-098",
                    "CDISC-TEST-098",
                    "CDISC-TEST-098",
                    "CDISC-TEST-098",
                    "CDISC-TEST-099",
                    "CDISC-TEST-099",
                    "CDISC-TEST-099",
                    "CDISC-TEST-099",
                    "CDISC-TEST-099",
                    "CDISC-TEST-099",
                    "CDISC-TEST-099",
                    "CDISC-TEST-099",
                    "CDISC-TEST-099",
                    "CDISC-TEST-099",
                    "CDISC-TEST-099",
                    "CDISC-TEST-099",
                    "CDISC-TEST-099",
                    "CDISC-TEST-099",
                    "CDISC-TEST-099",
                    "CDISC-TEST-100",
                    "CDISC-TEST-100",
                    "CDISC-TEST-100",
                    "CDISC-TEST-100",
                    "CDISC-TEST-100",
                    "CDISC-TEST-100",
                    "CDISC-TEST-100",
                    "CDISC-TEST-100",
                    "CDISC-TEST-100",
                    "CDISC-TEST-100",
                    "CDISC-TEST-100",
                    "CDISC-TEST-100",
                    "CDISC-TEST-100",
                    "CDISC-TEST-100",
                    "CDISC-TEST-100",
                    "CDISC-TEST-100",
                    "CDISC-TEST-100",
                    "CDISC-TEST-100",
                    "CDISC-TEST-100",
                    "CDISC-TEST-100",
                    "CDISC-TEST-100"
                ],
                "AESEQ": [
                    1,
                    2,
                    3,
                    4,
                    5,
                    6,
                    7,
                    8,
                    9,
                    10,
                    11,
                    12,
                    13,
                    14,
                    15,
                    16,
                    17,
                    18,
                    19,
                    20,
                    21,
                    22,
                    23,
                    24,
                    25,
                    26,
                    27,
                    28,
                    29,
                    30,
                    31,
                    32,
                    33,
                    34,
                    35,
                    36,
                    37,
                    38,
                    39,
                    40,
                    41,
                    42,
                    43,
                    44,
                    45,
                    46,
                    47,
                    48,
                    49,
                    50,
                    51,
                    52,
                    53,
                    54,
                    55,
                    56,
                    57,
                    58,
                    59,
                    60,
                    61,
                    62,
                    63,
                    64,
                    65,
                    66,
                    67,
                    68,
                    69,
                    70,
                    71,
                    72,
                    73,
                    74,
                    75,
                    76,
                    77,
                    78,
                    79,
                    80,
                    81,
                    82,
                    83,
                    84,
                    85,
                    86,
                    87,
                    88,
                    89,
                    90,
                    91,
                    92,
                    93,
                    94,
                    95,
                    96,
                    97,
                    98,
                    99,
                    100,
                    101,
                    102,
                    103,
                    104,
                    105,
                    106,
                    107,
                    108,
                    109,
                    110,
                    111,
                    112,
                    113,
                    114,
                    115,
                    116,
                    117,
                    118,
                    119,
                    120,
                    121,
                    122,
                    123,
                    124,
                    125,
                    126,
                    127,
                    128,
                    129,
                    130,
                    131,
                    132,
                    133,
                    134,
                    135,
                    136,
                    137,
                    138,
                    139,
                    140,
                    141,
                    142,
                    143,
                    144,
                    145,
                    146,
                    147,
                    148,
                    149,
                    150,
                    151,
                    152,
                    153,
                    154,
                    155,
                    156,
                    157,
                    158,
                    159,
                    160,
                    161,
                    162,
                    163,
                    164,
                    165,
                    166,
                    167,
                    168,
                    169,
                    170,
                    171,
                    172,
                    173,
                    174,
                    175,
                    176,
                    177,
                    178,
                    179,
                    180,
                    181,
                    182,
                    183,
                    184,
                    185,
                    186,
                    187,
                    188,
                    189,
                    190,
                    191,
                    192,
                    193,
                    194,
                    195,
                    196,
                    197,
                    198,
                    199,
                    200,
                    201,
                    202,
                    203,
                    204,
                    205,
                    206,
                    207,
                    208,
                    209,
                    210,
                    211,
                    212,
                    213,
                    214,
                    215,
                    216,
                    217,
                    218,
                    219,
                    220,
                    221,
                    222,
                    223,
                    224,
                    225,
                    226,
                    227,
                    228,
                    229,
                    230,
                    231,
                    232,
                    233,
                    234,
                    235,
                    236,
                    237,
                    238,
                    239,
                    240,
                    241,
                    242,
                    243,
                    244,
                    245,
                    246,
                    247,
                    248,
                    249,
                    250,
                    251,
                    252,
                    253,
                    254,
                    255,
                    256,
                    257,
                    258,
                    259,
                    260,
                    261,
                    262,
                    263,
                    264,
                    265,
                    266,
                    267,
                    268,
                    269,
                    270,
                    271,
                    272,
                    273,
                    274,
                    275,
                    276,
                    277,
                    278,
                    279,
                    280,
                    281,
                    282,
                    283,
                    284,
                    285,
                    286,
                    287,
                    288,
                    289,
                    290,
                    291,
                    292,
                    293,
                    294,
                    295,
                    296,
                    297,
                    298,
                    299,
                    300,
                    301,
                    302,
                    303,
                    304,
                    305,
                    306,
                    307,
                    308,
                    309,
                    310,
                    311,
                    312,
                    313,
                    314,
                    315,
                    316,
                    317,
                    318,
                    319,
                    320,
                    321,
                    322,
                    323,
                    324,
                    325,
                    326,
                    327,
                    328,
                    329,
                    330,
                    331,
                    332,
                    333,
                    334,
                    335,
                    336,
                    337,
                    338,
                    339,
                    340,
                    341,
                    342,
                    343,
                    344,
                    345,
                    346,
                    347,
                    348,
                    349,
                    350,
                    351,
                    352,
                    353,
                    354,
                    355,
                    356,
                    357,
                    358,
                    359,
                    360,
                    361,
                    362,
                    363,
                    364,
                    365,
                    366,
                    367,
                    368,
                    369,
                    370,
                    371,
                    372,
                    373,
                    374,
                    375,
                    376,
                    377,
                    378,
                    379,
                    380,
                    381,
                    382,
                    383,
                    384,
                    385,
                    386,
                    387,
                    388,
                    389,
                    390,
                    391,
                    392,
                    393,
                    394,
                    395,
                    396,
                    397,
                    398,
                    399,
                    400,
                    401,
                    402,
                    403,
                    404,
                    405,
                    406,
                    407,
                    408,
                    409,
                    410,
                    411,
                    412,
                    413,
                    414,
                    415,
                    416,
                    417,
                    418,
                    419,
                    420,
                    421,
                    422,
                    423,
                    424,
                    425,
                    426,
                    427,
                    428,
                    429,
                    430,
                    431,
                    432,
                    433,
                    434,
                    435,
                    436,
                    437,
                    438,
                    439,
                    440,
                    441,
                    442,
                    443,
                    444,
                    445,
                    446,
                    447,
                    448,
                    449,
                    450,
                    451,
                    452,
                    453,
                    454,
                    455,
                    456,
                    457,
                    458,
                    459,
                    460,
                    461,
                    462,
                    463,
                    464,
                    465,
                    466,
                    467,
                    468,
                    469,
                    470,
                    471,
                    472,
                    473,
                    474,
                    475,
                    476,
                    477,
                    478,
                    479,
                    480,
                    481,
                    482,
                    483,
                    484,
                    485,
                    486,
                    487,
                    488,
                    489,
                    490,
                    491,
                    492,
                    493,
                    494,
                    495,
                    496,
                    497,
                    498,
                    499,
                    500,
                    501,
                    502,
                    503,
                    504,
                    505,
                    506,
                    507,
                    508,
                    509,
                    510,
                    511,
                    512,
                    513,
                    514,
                    515,
                    516,
                    517,
                    518,
                    519,
                    520,
                    521,
                    522,
                    523,
                    524,
                    525,
                    526,
                    527,
                    528,
                    529,
                    530,
                    531,
                    532,
                    533,
                    534,
                    535,
                    536,
                    537,
                    538,
                    539,
                    540,
                    541,
                    542,
                    543,
                    544,
                    545,
                    546,
                    547,
                    548,
                    549,
                    550,
                    551,
                    552,
                    553,
                    554,
                    555,
                    556,
                    557,
                    558,
                    559,
                    560,
                    561,
                    562,
                    563,
                    564,
                    565,
                    566,
                    567,
                    568,
                    569,
                    570,
                    571,
                    572,
                    573,
                    574,
                    575,
                    576,
                    577,
                    578,
                    579,
                    580,
                    581,
                    582,
                    583,
                    584,
                    585,
                    586,
                    587,
                    588,
                    589,
                    590,
                    591,
                    592,
                    593,
                    594,
                    595,
                    596,
                    597,
                    598,
                    599,
                    600,
                    601,
                    602,
                    603,
                    604,
                    605,
                    606,
                    607,
                    608,
                    609,
                    610,
                    611,
                    612,
                    613,
                    614,
                    615,
                    616,
                    617,
                    618,
                    619,
                    620,
                    621,
                    622,
                    623,
                    624,
                    625,
                    626,
                    627,
                    628,
                    629,
                    630,
                    631,
                    632,
                    633,
                    634,
                    635,
                    636,
                    637,
                    638,
                    639,
                    640,
                    641,
                    642,
                    643,
                    644,
                    645,
                    646,
                    647,
                    648,
                    649,
                    650,
                    651,
                    652,
                    653,
                    654,
                    655,
                    656,
                    657,
                    658,
                    659,
                    660,
                    661,
                    662,
                    663,
                    664,
                    665,
                    666,
                    667,
                    668,
                    669,
                    670,
                    671,
                    672,
                    673,
                    674,
                    675,
                    676,
                    677,
                    678,
                    679,
                    680,
                    681,
                    682,
                    683,
                    684,
                    685,
                    686,
                    687,
                    688,
                    689,
                    690,
                    691,
                    692,
                    693,
                    694,
                    695,
                    696,
                    697,
                    698,
                    699,
                    700,
                    701,
                    702,
                    703,
                    704,
                    705,
                    706,
                    707,
                    708,
                    709,
                    710,
                    711,
                    712,
                    713,
                    714,
                    715,
                    716,
                    717,
                    718,
                    719,
                    720,
                    721,
                    722,
                    723,
                    724,
                    725,
                    726,
                    727,
                    728,
                    729,
                    730,
                    731,
                    732,
                    733,
                    734,
                    735,
                    736,
                    737,
                    738,
                    739,
                    740,
                    741,
                    742,
                    743,
                    744,
                    745,
                    746,
                    747,
                    748,
                    749,
                    750,
                    751,
                    752,
                    753,
                    754,
                    755,
                    756,
                    757,
                    758,
                    759,
                    760,
                    761,
                    762,
                    763,
                    764,
                    765,
                    766,
                    767,
                    768,
                    769,
                    770,
                    771,
                    772,
                    773,
                    774,
                    775,
                    776,
                    777,
                    778,
                    779,
                    780,
                    781,
                    782,
                    783,
                    784,
                    785,
                    786,
                    787,
                    788,
                    789,
                    790,
                    791,
                    792,
                    793,
                    794,
                    795,
                    796,
                    797,
                    798,
                    799,
                    800,
                    801,
                    802,
                    803,
                    804,
                    805,
                    806,
                    807,
                    808,
                    809,
                    810,
                    811,
                    812,
                    813,
                    814,
                    815,
                    816,
                    817,
                    818,
                    819,
                    820,
                    821,
                    822,
                    823,
                    824,
                    825,
                    826,
                    827,
                    828,
                    829,
                    830,
                    831,
                    832,
                    833,
                    834,
                    835,
                    836,
                    837,
                    838,
                    839,
                    840,
                    841,
                    842,
                    843,
                    844,
                    845,
                    846,
                    847,
                    848,
                    849,
                    850,
                    851,
                    852,
                    853,
                    854,
                    855,
                    856,
                    857,
                    858,
                    859,
                    860,
                    861,
                    862,
                    863,
                    864,
                    865,
                    866,
                    867,
                    868,
                    869,
                    870,
                    871,
                    872,
                    873,
                    874,
                    875,
                    876,
                    877,
                    878,
                    879,
                    880,
                    881,
                    882,
                    883,
                    884,
                    885,
                    886,
                    887,
                    888,
                    889,
                    890,
                    891,
                    892,
                    893,
                    894,
                    895,
                    896,
                    897,
                    898,
                    899,
                    900,
                    901,
                    902,
                    903,
                    904,
                    905,
                    906,
                    907,
                    908,
                    909,
                    910,
                    911,
                    912,
                    913,
                    914,
                    915,
                    916,
                    917,
                    918,
                    919,
                    920,
                    921,
                    922,
                    923,
                    924,
                    925,
                    926,
                    927,
                    928,
                    929,
                    930,
                    931,
                    932,
                    933,
                    934,
                    935,
                    936,
                    937,
                    938,
                    939,
                    940,
                    941,
                    942,
                    943,
                    944,
                    945,
                    946,
                    947,
                    948,
                    949,
                    950,
                    951,
                    952,
                    953,
                    954,
                    955,
                    956,
                    957,
                    958,
                    959,
                    960,
                    961,
                    962,
                    963,
                    964,
                    965,
                    966,
                    967,
                    968,
                    969,
                    970,
                    971,
                    972,
                    973,
                    974,
                    975,
                    976,
                    977,
                    978,
                    979,
                    980,
                    981,
                    982,
                    983,
                    984,
                    985,
                    986,
                    987,
                    988,
                    989,
                    990,
                    991,
                    992,
                    993,
                    994,
                    995,
                    996,
                    997,
                    998,
                    999,
                    1000,
                    1001,
                    1002,
                    1003,
                    1004,
