STUDYID,DOMAIN,USUBJID,AESEQ,AETERM,AEMODIFY,AEDECOD,AEBODSYS,AEBDSYCD,AESEV,AESER,AEACN,AEREL,AEOUT,AESCONG,AESDISAB,AESDTH,AESHOSP,AESLIFE,EPOCH,AESTDTC,AEENDTC,AEDY,AESTDY,AEENDY,AEENRF
ABC123,AE,123101,1,POUNDING HEADACHE,HEADACHE,Headache,Nervous system disorders,3,SEVERE,N,NOT APPLICABLE,DEFINITELY NOT RELATED,RECOVERED/RESOLVED,,,,,,SCREENING,2005-10-12,2005-10-12,,,,
ABC123,AE,123101,2,BACK PAIN FOR 6 HOURS,BACK PAIN,Back pain,Musculoskeletal and connective tissue disorders,6,MODERATE,N,DOSE REDUCED,PROBABLY RELATED,RECOVERED/RESOLVED,,,,,,TREATMENT,2005-10-13T13:05,2005-10-13T19:00,,,,
ABC123,AE,123101,3,PULMONARY EMBOLISM,,Pulmonary embolism,Vascular disorders,7,MODERATE,Y,DOSE REDUCED,PROBABLY NOT RELATED,RECOVERING/RESOLVING,,,,Y,Y,TREATMENT,2005-10-21,,,,,AFTER
ABC123,AE,123101,4,POUNDING HEADACHE,HEADACHE,Headache,Nervous system disorders,4,SEVERE,N,NOT APPLICABLE,DEFINITELY NOT RELATED,RECOVERED/RESOLVED,,,,,,SCREENING,2005-10-12,2005-10-12,,,,
ABC123,AE,123101,5,BACK PAIN FOR 6 HOURS,BACK PAIN,Back pain,Musculoskeletal and connective tissue disorders,5,MODERATE,N,DOSE REDUCED,PROBABLY RELATED,RECOVERED/RESOLVED,,,,,,TREATMENT,2005-10-13T13:05,2005-10-13T19:00,,,,
ABC123,AE,123101,6,PULMONARY EMBOLISM,,Pulmonary embolism,Vascular disorders,2,MODERATE,Y,DOSE REDUCED,PROBABLY NOT RELATED,RECOVERING/RESOLVING,,,,Y,Y,TREATMENT,2005-10-21,,,,,AFTER
