STUDYID,RDOMAIN,USUBJID,IDVAR,IDVARVAL,RELTYPE,RELID
CDISCPILOT01,AE,,AELNKID,,ONE,AEDS
CDISCPILOT01,DS,,DSLNKID,,ONE,AEDS
CDISCPILOT01,AE,,AELNKID,,ONE,AEDD
CDISCPILOT01,DD,,DDLNKID,,ONE,AEDD
CDISCPILOT01,AE,,AELNKID,,ONE,AEFA
CDISCPILOT01,FA,,FALNKGRP,,MANY,AEFA
CDISCPILOT01,AE,CDISC001,AESEQ,1,,AECM1
CDISCPILOT01,AE,CDISC001,CMSEQ,5,,AECM1
CDISCPILOT01,AE,,AESEQ,2,,AEMH1
CDISCPILOT01,AE,CDISC002,MHSEQ,,,AEMH1
