dataset,variable,label,type,length
lb,STUDYID,Study Identifier,Char,12
lb,DOMAIN,Domain Abbreviation,Char,2
lb,USUBJID,Unique Subject Identifier,Char,8
lb,LBSEQ,Sequence Number,Num,8
lb,LBTESTCD,Lab Test or Examination Short Name,Char,7
lb,LBTEST,Lab Test or Examination Name,Char,39
lb,LBCAT,Category for Lab Test,Char,10
lb,LBSCAT,"Subcategory for
Lab Test",Char,39
lb,LBORRES,Result or Finding in Original Units,Char,6
lb,LBORRESU,Original Units,Char,7
lb,LBORNRLO,Reference Range Lower Limit in Orig Unit,Char,200
lb,LBORNRHI,Reference Range Upper Limit in Orig Unit,Char,200
lb,LBSTRESC,Character Result/Finding in Std Format,Char,8
lb,LBSTRESN,Numeric Result/Finding in Standard Units,Num,8
lb,LBSTRESU,Standard Units,Char,7
lb,LBSTNRLO,Reference Range Lower Limit-Std Units,Num,8
lb,LBSTNRHI,Reference Range Upper Limit-Std Units,Num,8
lb,LBNRIND,Reference Range Indicator,Char,8
lb,LBSTAT,Completion Status,Char,8
lb,LBSPEC,Specimen Type,Char,8
lb,LBMETHOD,"Method of Test or
Examination",Char,200
lb,LBBLFL,Baseline Flag,Char,1
lb,VISITNUM,Visit Number,Num,8
lb,VISIT,Visit Name,Char,200
lb,EPOCH,Epoch,Char,9
lb,LBDTC,Date/Time of Specimen Collection,Char,19
lb,LBDY,Study Day of Specimen Collection,Num,8
