STUDYID,DOMAIN,USUBJID,VISITNUM,VISIT,SVPRESP,VISITDY,SVSTDTC,SVENDTC,SVSTDY,SVENDY,SVUPDES
CDISCPILOT01,SV,CDISC001,1,SCREENING 1,Y,-8,2012-11-23,2012-11-23,-7,-7,
CDISCPILOT01,SV,CDISC001,2,SCREENING 2,Y,-3,2012-11-28,2012-11-28,-2,-2,
CDISCPILOT01,SV,CDISC001,3,BASELINE,Y,1,2012-11-30,2012-11-30,1,1,
CDISCPILOT01,SV,CDISC001,4,WEEK 2,Y,15,2012-12-13,2012-12-13,14,14,
CDISCPILOT01,SV,CDISC001,4.1,WEEK 3: UNSCHEDULED 01,Y,,2012-12-22,2012-12-22,23,23,UNSCHEDULED LABS
CDISCPILOT01,SV,CDISC001,5,WEEK 4,Y,29,2013-12-27,2013-12-27,28,28,
CDISCPILOT01,SV,CDISC001,6,WEEK 6,Y,43,2013-01-10,2013-01-10,42,42,
CDISCPILOT01,SV,CDISC001,101,EARLY DISCONTINUATION,Y,,2013-01-12,2013-01-12,44,44,UNSCHEDULED VISIT TO WITHDRAW FROM STUDY
