USUBJID,PARAM,PARAMCD,AVAL,CNSR,EVNTDESC,SRCDOM,SRCVAR,SRCSEQ,BTOXGRLN,BTOXGRN,BTOXGR
2010,Time to First Hospital Admission (day),HOSPADM,9,0,FIRST HOSPITAL ADMISSION,HO,HOSTDY,99,,,
2010,Time to First DBP>90 (day),DBP,15,0,FIRST DBP>90,VS,VSDY,208,,,
2010,Time to First SBP>140 (day),SBP,22,1,COMPLETED THE STUDY,DS,DSSTDY,301,,,
2010,Time to First SBP>140 (day),SBP,22,1,COMPLETED THE STUDY,DS,DSSTDY,301,,,
2010,Time to Hypertension Event (day),HYPEREVT,9,0,HYPERTEN. EVENT,HO,HOSTDY,99,,,
3082,Time to First Hospital Admission (day),HOSPADM,10,1,COMPLETED THE STUDY,DS,DSSTDY,130,,,
3082,Time to First DBP>90 (day),DBP,10,1,COMPLETED THE STUDY,DS,DSSTDY,130,,,
3082,Time to First SBP>140 (day),SBP,10,1,COMPLETED THE STUDY,DS,DSSTDY,130,,,
3082,Time to Hypertension Event (day),HYPEREVT,10,1,COMPLETED THE STUDY,DS,DSSTDY,130,,,
