STUDYID,RDOMAIN,USUBJID,IDVAR,IDVARVAL,QNAM,QLABEL,QVAL,QORIG,QEVAL
CDISCPILOT01,EC,CDISC009,,,ECREASOC,Reason for Occur Value,INVESTIGATOR DECISION,COLLECTED,INVESTIGATOR
CDISCPILOT01,EC,CDISC009,,,ECREASOC,Reason for Occur Value,INVESTIGATOR DECISION,COLLECTED,INVESTIGATOR
CDISCPILOT01,EC,CDISC009,ECSEQ,127,ECREASOC,Reason for Occur Value,INVESTIGATOR DECISION,COLLECTED,INVESTIGATOR
CDISCPILOT01,EC,CDISC009,ECSEQ,128,ECREASOC,Reason for Occur Value,INVESTIGATOR DECISION,COLLECTED,INVESTIGATOR
