STUDYID,DOMAIN,USUBJID,FTSEQ,FTTESTCD,FTTEST,FTCAT,FTSCAT,FTORRES,FTSTRESC,FTLOBXFL,FTREPNUM,VISIT,EPOCH,FTDTC,FTDY,FTTPT,FTTPTNUM,FTELTM,FTTPTREF,,
CDISCPILOT01,FT,CDISC001,120,AVL0201,AVL02-List A Word 1,AVLT-REY,FORM 1,RECALLED,RECALLED,Y,7,SCREENING 2,SCREENING,2012-11-28T13:00,-2,30 MIN POST,10,PT30M,REF1,,
CDISCPILOT01,FT,CDISC001,121,AVL0202,AVL02-List A Word 2,AVLT-REY,FORM 1,RECALLED,RECALLED,Y,7,SCREENING 2,SCREENING,2012-11-28T13:00,-2,30 MIN POST,10,PT30M,REF1,,
CDISCPILOT01,FT,CDISC001,122,AVL0203,AVL02-List A Word 3,AVLT-REY,FORM 1,NOT RECALLED,NOT RECALLED,Y,7,SCREENING 2,SCREENING,2012-11-28T13:00,-2,30 MIN POST,10,PT30M,REF1,,
CDISCPILOT01,FT,CDISC001,123,AVL0204,AVL02-List A Word 4,AVLT-REY,FORM 1,RECALLED,RECALLED,Y,7,SCREENING 2,SCREENING,2012-11-28T13:00,-2,30 MIN POST,10,PT30M,REF1,,
CDISCPILOT01,FT,CDISC001,256,AVL0201,AVL02-List A Word 1,AVLT-REY,FORM 1,RECALLED,RECALLED,,7,WEEK 8,TREATMENT,2013-01-23T13:00,55,30 MIN POST,20,PT30M,REF3,,
CDISCPILOT01,FT,CDISC001,257,AVL0202,AVL02-List A Word 2,AVLT-REY,FORM 1,NOT RECALLED,NOT RECALLED,,7,WEEK 8,TREATMENT,2013-01-23T13:00,55,30 MIN POST,20,PT30M,REF3,,
CDISCPILOT01,FT,CDISC001,258,AVL0203,AVL02-List A Word 3,AVLT-REY,FORM 1,RECALLED,RECALLED,,7,WEEK 8,TREATMENT,2013-01-23T13:00,55,30 MIN POST,20,PT30M,REF3,,
CDISCPILOT01,FT,CDISC001,259,AVL0204,AVL02-List A Word 4,AVLT-REY,FORM 1,RECALLED,RECALLED,,7,WEEK 8,TREATMENT,2013-01-23T13:00,55,30 MIN POST,21,PT30M,REF4,,
CDISCPILOT01,FT,CDISC001,392,AVL0201,AVL02-List A Word 1,AVLT-REY,FORM 1,RECALLED,RECALLED,,7,EARLY DISCONTINUATION RETRIEVAL,TREATMENT,2013-05-20T13:00,172,30 MIN POST,30,PT30M,REF5,,
CDISCPILOT01,FT,CDISC001,393,AVL0202,AVL02-List A Word 2,AVLT-REY,FORM 1,NOT RECALLED,NOT RECALLED,,7,EARLY DISCONTINUATION RETRIEVAL,TREATMENT,2013-05-20T13:00,172,30 MIN POST,30,PT30M,REF5,,
CDISCPILOT01,FT,CDISC001,394,AVL0203,AVL02-List A Word 3,AVLT-REY,FORM 1,RECALLED,RECALLED,,7,EARLY DISCONTINUATION RETRIEVAL,TREATMENT,2013-05-20T13:00,172,30 MIN POST,30,PT30M,REF5,,
CDISCPILOT01,FT,CDISC001,395,AVL0204,AVL02-List A Word 4,AVLT-REY,FORM 1,RECALLED,RECALLED,,7,EARLY DISCONTINUATION RETRIEVAL,TREATMENT,2013-05-20T13:00,172,30 MIN POST,30,PT30M,REF5,,
CDISCPILOT01,FT,CDISC002,120,AVL0201,AVL02-List A Word 1,AVLT-REY,FORM 1,RECALLED,RECALLED,Y,7,SCREENING 2,SCREENING,2012-11-14T13:00,-1,30 MIN POST,11,PT30M,REF2,,
CDISCPILOT01,FT,CDISC002,121,AVL0202,AVL02-List A Word 2,AVLT-REY,FORM 1,NOT RECALLED,NOT RECALLED,Y,7,SCREENING 2,SCREENING,2012-11-14T13:00,-1,30 MIN POST,11,PT30M,REF2,,
CDISCPILOT01,FT,CDISC002,122,AVL0203,AVL02-List A Word 3,AVLT-REY,FORM 1,NOT RECALLED,NOT RECALLED,Y,7,SCREENING 2,SCREENING,2012-11-14T13:00,-1,30 MIN POST,11,PT30M,REF2,,
CDISCPILOT01,FT,CDISC002,123,AVL0204,AVL02-List A Word 4,AVLT-REY,FORM 1,NOT RECALLED,NOT RECALLED,Y,7,SCREENING 2,SCREENING,2012-11-14T13:00,-1,30 MIN POST,11,PT30M,REF2,,
CDISCPILOT01,FT,CDISC002,256,AVL0201,AVL02-List A Word 1,AVLT-REY,FORM 1,RECALLED,RECALLED,,7,WEEK 8,TREATMENT,2013-01-08T13:00,55,30 MIN POST,21,PT30M,REF4,,
CDISCPILOT01,FT,CDISC002,257,AVL0202,AVL02-List A Word 2,AVLT-REY,FORM 1,RECALLED,RECALLED,,7,WEEK 8,TREATMENT,2013-01-08T13:00,55,30 MIN POST,21,PT30M,REF4,,
CDISCPILOT01,FT,CDISC002,258,AVL0203,AVL02-List A Word 3,AVLT-REY,FORM 1,RECALLED,RECALLED,,7,WEEK 8,TREATMENT,2013-01-08T13:00,55,30 MIN POST,10,PT30M,REF1,,
CDISCPILOT01,FT,CDISC002,259,AVL0204,AVL02-List A Word 4,AVLT-REY,FORM 1,NOT RECALLED,NOT RECALLED,,7,WEEK 8,TREATMENT,2013-01-08T13:00,55,30 MIN POST,10,PT30M,REF1,,
CDISCPILOT01,FT,CDISC003,120,AVL0201,AVL02-List A Word 1,AVLT-REY,FORM 1,RECALLED,RECALLED,Y,7,SCREENING 2,SCREENING,2013-08-27T13:00,-2,30 MIN POST,10,PT30M,REF1,,
CDISCPILOT01,FT,CDISC003,121,AVL0202,AVL02-List A Word 2,AVLT-REY,FORM 1,RECALLED,RECALLED,Y,7,SCREENING 2,SCREENING,2013-08-27T13:00,-2,30 MIN POST,10,PT30M,REF1,,
CDISCPILOT01,FT,CDISC003,122,AVL0203,AVL02-List A Word 3,AVLT-REY,FORM 1,RECALLED,RECALLED,Y,7,SCREENING 2,SCREENING,2013-08-27T13:00,-2,30 MIN POST,12,PT30M,,,
CDISCPILOT01,FT,CDISC003,123,AVL0204,AVL02-List A Word 4,AVLT-REY,FORM 1,RECALLED,RECALLED,Y,7,SCREENING 2,SCREENING,2013-08-27T13:00,-2,30 MIN POST,12,PT30M,,,
CDISCPILOT01,FT,CDISC003,256,AVL0201,AVL02-List A Word 1,AVLT-REY,FORM 1,RECALLED,RECALLED,,7,WEEK 8,TREATMENT,2013-10-22T13:00,55,30 MIN POST,10,PT30M,REF1,,
CDISCPILOT01,FT,CDISC003,257,AVL0202,AVL02-List A Word 2,AVLT-REY,FORM 1,RECALLED,RECALLED,,7,WEEK 8,TREATMENT,2013-10-22T13:00,55,30 MIN POST,11,PT30M,REF2,,
CDISCPILOT01,FT,CDISC003,258,AVL0203,AVL02-List A Word 3,AVLT-REY,FORM 1,RECALLED,RECALLED,,7,WEEK 8,TREATMENT,2013-10-22T13:00,55,30 MIN POST,11,PT30M,REF2,,
CDISCPILOT01,FT,CDISC003,259,AVL0204,AVL02-List A Word 4,AVLT-REY,FORM 1,RECALLED,RECALLED,,7,WEEK 8,TREATMENT,2013-10-22T13:00,55,30 MIN POST,11,PT30M,REF2,,
CDISCPILOT01,FT,CDISC003,528,AVL0201,AVL02-List A Word 1,AVLT-REY,FORM 1,RECALLED,RECALLED,,7,EARLY DISCONTINUATION RETRIEVAL,TREATMENT,2014-02-13T14:00,169,30 MIN POST,31,PT30M,REF6,,
CDISCPILOT01,FT,CDISC003,529,AVL0202,AVL02-List A Word 2,AVLT-REY,FORM 1,RECALLED,RECALLED,,7,EARLY DISCONTINUATION RETRIEVAL,TREATMENT,2014-02-13T14:00,169,30 MIN POST,31,PT30M,REF6,,
CDISCPILOT01,FT,CDISC003,530,AVL0203,AVL02-List A Word 3,AVLT-REY,FORM 1,RECALLED,RECALLED,,7,EARLY DISCONTINUATION RETRIEVAL,TREATMENT,2014-02-13T14:00,169,30 MIN POST,31,PT30M,REF6,,
CDISCPILOT01,FT,CDISC003,531,AVL0204,AVL02-List A Word 4,AVLT-REY,FORM 1,RECALLED,RECALLED,,7,EARLY DISCONTINUATION RETRIEVAL,TREATMENT,2014-02-13T14:00,169,30 MIN POST,31,PT30M,REF6,,
,,,,,,,,,,,,,,,,,,,,,LIST A RECALL 6
,,,,,,,,,,,,,,,,,,,,,LIST A RECALL 6
,,,,,,,,,,,,,,,,,,,,,LIST A RECALL 6
,,,,,,,,,,,,,,,,,,,,,LIST A RECALL 6
,,,,,,,,,,,,,,,,,,,,,LIST A RECALL 6
,,,,,,,,,,,,,,,,,,,,,LIST A RECALL 6
,,,,,,,,,,,,,,,,,,,,,LIST A RECALL 6
,,,,,,,,,,,,,,,,,,,,,LIST A RECALL 6
,,,,,,,,,,,,,,,,,,,,,LIST A RECALL 6
,,,,,,,,,,,,,,,,,,,,,LIST A RECALL 6
,,,,,,,,,,,,,,,,,,,,,LIST A RECALL 6
,,,,,,,,,,,,,,,,,,,,,LIST A RECALL 6
,,,,,,,,,,,,,,,,,,,,,LIST A RECALL 6
,,,,,,,,,,,,,,,,,,,,,LIST A RECALL 6
,,,,,,,,,,,,,,,,,,,,,LIST A RECALL 6
,,,,,,,,,,,,,,,,,,,,,LIST A RECALL 6
,,,,,,,,,,,,,,,,,,,,,LIST A RECALL 6
,,,,,,,,,,,,,,,,,,,,,LIST A RECALL 6
,,,,,,,,,,,,,,,,,,,,,LIST A RECALL 6
,,,,,,,,,,,,,,,,,,,,,LIST A RECALL 6
,,,,,,,,,,,,,,,,,,,,,LIST A RECALL 6
,,,,,,,,,,,,,,,,,,,,,LIST A RECALL 6
,,,,,,,,,,,,,,,,,,,,,LIST A RECALL 6
,,,,,,,,,,,,,,,,,,,,,LIST A RECALL 6
,,,,,,,,,,,,,,,,,,,,,LIST A RECALL 6
,,,,,,,,,,,,,,,,,,,,,LIST A RECALL 6
,,,,,,,,,,,,,,,,,,,,,LIST A RECALL 6
,,,,,,,,,,,,,,,,,,,,,LIST A RECALL 6
,,,,,,,,,,,,,,,,,,,,,LIST A RECALL 6
,,,,,,,,,,,,,,,,,,,,,LIST A RECALL 6
,,,,,,,,,,,,,,,,,,,,,LIST A RECALL 6
,,,,,,,,,,,,,,,,,,,,,LIST A RECALL 6
,,,,,,,,,,,,,,,,,,,,,LIST A RECALL 6
,,,,,,,,,,,,,,,,,,,,,LIST A RECALL 6
,,,,,,,,,,,,,,,,,,,,,LIST A RECALL 6
,,,,,,,,,,,,,,,,,,,,,LIST A RECALL 6
,,,,,,,,,,,,,,,,,,,,,LIST A RECALL 6
,,,,,,,,,,,,,,,,,,,,,LIST A RECALL 6
,,,,,,,,,,,,,,,,,,,,,LIST A RECALL 6
,,,,,,,,,,,,,,,,,,,,,LIST A RECALL 6
,,,,,,,,,,,,,,,,,,,,,LIST A RECALL 6
,,,,,,,,,,,,,,,,,,,,,LIST A RECALL 6
,,,,,,,,,,,,,,,,,,,,,LIST A RECALL 6
,,,,,,,,,,,,,,,,,,,,,LIST A RECALL 6
,,,,,,,,,,,,,,,,,,,,,LIST A RECALL 6
,,,,,,,,,,,,,,,,,,,,,LIST A RECALL 6
,,,,,,,,,,,,,,,,,,,,,LIST A RECALL 6
,,,,,,,,,,,,,,,,,,,,,LIST A RECALL 6
,,,,,,,,,,,,,,,,,,,,,LIST A RECALL 6
,,,,,,,,,,,,,,,,,,,,,LIST A RECALL 6
,,,,,,,,,,,,,,,,,,,,,LIST A RECALL 6
,,,,,,,,,,,,,,,,,,,,,LIST A RECALL 6
,,,,,,,,,,,,,,,,,,,,,LIST A RECALL 6
,,,,,,,,,,,,,,,,,,,,,LIST A RECALL 6
,,,,,,,,,,,,,,,,,,,,,LIST A RECALL 6
,,,,,,,,,,,,,,,,,,,,,LIST A RECALL 6
,,,,,,,,,,,,,,,,,,,,,LIST A RECALL 6
,,,,,,,,,,,,,,,,,,,,,LIST A RECALL 6
,,,,,,,,,,,,,,,,,,,,,LIST A RECALL 6
,,,,,,,,,,,,,,,,,,,,,LIST A RECALL 6
,,,,,,,,,,,,,,,,,,,,,LIST A RECALL 6
,,,,,,,,,,,,,,,,,,,,,LIST A RECALL 6
,,,,,,,,,,,,,,,,,,,,,LIST A RECALL 6
,,,,,,,,,,,,,,,,,,,,,LIST A RECALL 6
,,,,,,,,,,,,,,,,,,,,,LIST A RECALL 6
,,,,,,,,,,,,,,,,,,,,,LIST A RECALL 6
,,,,,,,,,,,,,,,,,,,,,LIST A RECALL 6
,,,,,,,,,,,,,,,,,,,,,LIST A RECALL 6
,,,,,,,,,,,,,,,,,,,,,LIST A RECALL 6
,,,,,,,,,,,,,,,,,,,,,LIST A RECALL 6
,,,,,,,,,,,,,,,,,,,,,LIST A RECALL 6
,,,,,,,,,,,,,,,,,,,,,LIST A RECALL 6
,,,,,,,,,,,,,,,,,,,,,LIST A RECALL 6
,,,,,,,,,,,,,,,,,,,,,LIST A RECALL 6
,,,,,,,,,,,,,,,,,,,,,LIST A RECALL 6
,,,,,,,,,,,,,,,,,,,,,LIST A RECALL 6
,,,,,,,,,,,,,,,,,,,,,LIST A RECALL 6
,,,,,,,,,,,,,,,,,,,,,LIST A RECALL 6
,,,,,,,,,,,,,,,,,,,,,LIST A RECALL 6
,,,,,,,,,,,,,,,,,,,,,LIST A RECALL 6
,,,,,,,,,,,,,,,,,,,,,LIST A RECALL 6
,,,,,,,,,,,,,,,,,,,,,LIST A RECALL 6
,,,,,,,,,,,,,,,,,,,,,LIST A RECALL 6
,,,,,,,,,,,,,,,,,,,,,LIST A RECALL 6
,,,,,,,,,,,,,,,,,,,,,LIST A RECALL 6
,,,,,,,,,,,,,,,,,,,,,LIST A RECALL 6
,,,,,,,,,,,,,,,,,,,,,LIST A RECALL 6
,,,,,,,,,,,,,,,,,,,,,LIST A RECALL 6
,,,,,,,,,,,,,,,,,,,,,LIST A RECALL 6
,,,,,,,,,,,,,,,,,,,,,LIST A RECALL 6
,,,,,,,,,,,,,,,,,,,,,LIST A RECALL 6
,,,,,,,,,,,,,,,,,,,,,LIST A RECALL 6
,,,,,,,,,,,,,,,,,,,,,LIST A RECALL 6
,,,,,,,,,,,,,,,,,,,,,LIST A RECALL 6
,,,,,,,,,,,,,,,,,,,,,LIST A RECALL 6
,,,,,,,,,,,,,,,,,,,,,LIST A RECALL 6
,,,,,,,,,,,,,,,,,,,,,LIST A RECALL 6
,,,,,,,,,,,,,,,,,,,,,LIST A RECALL 6
,,,,,,,,,,,,,,,,,,,,,LIST A RECALL 6
,,,,,,,,,,,,,,,,,,,,,LIST A RECALL 6
,,,,,,,,,,,,,,,,,,,,,LIST A RECALL 6
,,,,,,,,,,,,,,,,,,,,,LIST A RECALL 6
,,,,,,,,,,,,,,,,,,,,,LIST A RECALL 6
,,,,,,,,,,,,,,,,,,,,,LIST A RECALL 6
,,,,,,,,,,,,,,,,,,,,,LIST A RECALL 6
,,,,,,,,,,,,,,,,,,,,,LIST A RECALL 6
,,,,,,,,,,,,,,,,,,,,,LIST A RECALL 6
,,,,,,,,,,,,,,,,,,,,,LIST A RECALL 6
,,,,,,,,,,,,,,,,,,,,,LIST A RECALL 6
,,,,,,,,,,,,,,,,,,,,,LIST A RECALL 6
,,,,,,,,,,,,,,,,,,,,,LIST A RECALL 6
,,,,,,,,,,,,,,,,,,,,,LIST A RECALL 6
,,,,,,,,,,,,,,,,,,,,,LIST A RECALL 6
,,,,,,,,,,,,,,,,,,,,,LIST A RECALL 6
,,,,,,,,,,,,,,,,,,,,,LIST A RECALL 6
,,,,,,,,,,,,,,,,,,,,,LIST A RECALL 6
,,,,,,,,,,,,,,,,,,,,,LIST A RECALL 6
,,,,,,,,,,,,,,,,,,,,,LIST A RECALL 6
,,,,,,,,,,,,,,,,,,,,,LIST A RECALL 6
,,,,,,,,,,,,,,,,,,,,,LIST A RECALL 6
,,,,,,,,,,,,,,,,,,,,,LIST A RECALL 6
,,,,,,,,,,,,,,,,,,,,,LIST A RECALL 6
,,,,,,,,,,,,,,,,,,,,,LIST A RECALL 6
,,,,,,,,,,,,,,,,,,,,,LIST A RECALL 6
,,,,,,,,,,,,,,,,,,,,,LIST A RECALL 6
,,,,,,,,,,,,,,,,,,,,,LIST A RECALL 6
,,,,,,,,,,,,,,,,,,,,,LIST A RECALL 6
,,,,,,,,,,,,,,,,,,,,,LIST A RECALL 6
,,,,,,,,,,,,,,,,,,,,,LIST A RECALL 6
,,,,,,,,,,,,,,,,,,,,,LIST A RECALL 6
,,,,,,,,,,,,,,,,,,,,,LIST A RECALL 6
,,,,,,,,,,,,,,,,,,,,,LIST A RECALL 6
,,,,,,,,,,,,,,,,,,,,,LIST A RECALL 6
,,,,,,,,,,,,,,,,,,,,,LIST A RECALL 6
,,,,,,,,,,,,,,,,,,,,,LIST A RECALL 6
,,,,,,,,,,,,,,,,,,,,,LIST A RECALL 6
,,,,,,,,,,,,,,,,,,,,,LIST A RECALL 6
,,,,,,,,,,,,,,,,,,,,,LIST A RECALL 6
,,,,,,,,,,,,,,,,,,,,,LIST A RECALL 6
,,,,,,,,,,,,,,,,,,,,,LIST A RECALL 6
,,,,,,,,,,,,,,,,,,,,,LIST A RECALL 6
,,,,,,,,,,,,,,,,,,,,,LIST A RECALL 6
,,,,,,,,,,,,,,,,,,,,,LIST A RECALL 6
,,,,,,,,,,,,,,,,,,,,,LIST A RECALL 6
,,,,,,,,,,,,,,,,,,,,,LIST A RECALL 6
,,,,,,,,,,,,,,,,,,,,,LIST A RECALL 6
,,,,,,,,,,,,,,,,,,,,,LIST A RECALL 6
,,,,,,,,,,,,,,,,,,,,,LIST A RECALL 6
,,,,,,,,,,,,,,,,,,,,,LIST A RECALL 6
,,,,,,,,,,,,,,,,,,,,,LIST A RECALL 6
,,,,,,,,,,,,,,,,,,,,,LIST A RECALL 6
,,,,,,,,,,,,,,,,,,,,,LIST A RECALL 6
,,,,,,,,,,,,,,,,,,,,,LIST A RECALL 6
,,,,,,,,,,,,,,,,,,,,,LIST A RECALL 6
,,,,,,,,,,,,,,,,,,,,,LIST A RECALL 6
,,,,,,,,,,,,,,,,,,,,,LIST A RECALL 6
,,,,,,,,,,,,,,,,,,,,,LIST A RECALL 6
,,,,,,,,,,,,,,,,,,,,,LIST A RECALL 6
,,,,,,,,,,,,,,,,,,,,,LIST A RECALL 6
,,,,,,,,,,,,,,,,,,,,,LIST A RECALL 6
,,,,,,,,,,,,,,,,,,,,,LIST A RECALL 6
,,,,,,,,,,,,,,,,,,,,,LIST A RECALL 6
,,,,,,,,,,,,,,,,,,,,,LIST A RECALL 6
,,,,,,,,,,,,,,,,,,,,,LIST A RECALL 6
,,,,,,,,,,,,,,,,,,,,,LIST A RECALL 6
,,,,,,,,,,,,,,,,,,,,,LIST A RECALL 6
,,,,,,,,,,,,,,,,,,,,,LIST A RECALL 6
,,,,,,,,,,,,,,,,,,,,,LIST A RECALL 6
,,,,,,,,,,,,,,,,,,,,,LIST A RECALL 6
,,,,,,,,,,,,,,,,,,,,,LIST A RECALL 6
,,,,,,,,,,,,,,,,,,,,,LIST A RECALL 6
,,,,,,,,,,,,,,,,,,,,,LIST A RECALL 6
,,,,,,,,,,,,,,,,,,,,,LIST A RECALL 6
,,,,,,,,,,,,,,,,,,,,,LIST A RECALL 6
,,,,,,,,,,,,,,,,,,,,,LIST A RECALL 6
,,,,,,,,,,,,,,,,,,,,,LIST A RECALL 6
,,,,,,,,,,,,,,,,,,,,,LIST A RECALL 6
,,,,,,,,,,,,,,,,,,,,,LIST A RECALL 6
,,,,,,,,,,,,,,,,,,,,,LIST A RECALL 6
,,,,,,,,,,,,,,,,,,,,,LIST A RECALL 6
,,,,,,,,,,,,,,,,,,,,,LIST A RECALL 6
,,,,,,,,,,,,,,,,,,,,,LIST A RECALL 6
,,,,,,,,,,,,,,,,,,,,,LIST A RECALL 6
,,,,,,,,,,,,,,,,,,,,,LIST A RECALL 6
,,,,,,,,,,,,,,,,,,,,,LIST A RECALL 6
,,,,,,,,,,,,,,,,,,,,,LIST A RECALL 6
,,,,,,,,,,,,,,,,,,,,,LIST A RECALL 6
,,,,,,,,,,,,,,,,,,,,,LIST A RECALL 6
,,,,,,,,,,,,,,,,,,,,,LIST A RECALL 6
,,,,,,,,,,,,,,,,,,,,,LIST A RECALL 6
,,,,,,,,,,,,,,,,,,,,,LIST A RECALL 6
,,,,,,,,,,,,,,,,,,,,,LIST A RECALL 6
,,,,,,,,,,,,,,,,,,,,,LIST A RECALL 6
,,,,,,,,,,,,,,,,,,,,,LIST A RECALL 6
,,,,,,,,,,,,,,,,,,,,,LIST A RECALL 6
,,,,,,,,,,,,,,,,,,,,,LIST A RECALL 6
,,,,,,,,,,,,,,,,,,,,,LIST A RECALL 6
,,,,,,,,,,,,,,,,,,,,,LIST A RECALL 6
,,,,,,,,,,,,,,,,,,,,,LIST A RECALL 6
,,,,,,,,,,,,,,,,,,,,,LIST A RECALL 6
,,,,,,,,,,,,,,,,,,,,,LIST A RECALL 6
,,,,,,,,,,,,,,,,,,,,,LIST A RECALL 6
,,,,,,,,,,,,,,,,,,,,,LIST A RECALL 6
,,,,,,,,,,,,,,,,,,,,,LIST A RECALL 6
,,,,,,,,,,,,,,,,,,,,,LIST A RECALL 6
,,,,,,,,,,,,,,,,,,,,,LIST A RECALL 6
,,,,,,,,,,,,,,,,,,,,,LIST A RECALL 6
,,,,,,,,,,,,,,,,,,,,,LIST A RECALL 6
,,,,,,,,,,,,,,,,,,,,,LIST A RECALL 6
,,,,,,,,,,,,,,,,,,,,,LIST A RECALL 6
,,,,,,,,,,,,,,,,,,,,,LIST A RECALL 6
,,,,,,,,,,,,,,,,,,,,,LIST A RECALL 6
,,,,,,,,,,,,,,,,,,,,,LIST A RECALL 6
,,,,,,,,,,,,,,,,,,,,,LIST A RECALL 6
,,,,,,,,,,,,,,,,,,,,,LIST A RECALL 6
,,,,,,,,,,,,,,,,,,,,,LIST A RECALL 6
,,,,,,,,,,,,,,,,,,,,,LIST A RECALL 6
,,,,,,,,,,,,,,,,,,,,,LIST A RECALL 6
,,,,,,,,,,,,,,,,,,,,,LIST A RECALL 6
,,,,,,,,,,,,,,,,,,,,,LIST A RECALL 6
,,,,,,,,,,,,,,,,,,,,,LIST A RECALL 6
,,,,,,,,,,,,,,,,,,,,,LIST A RECALL 6
,,,,,,,,,,,,,,,,,,,,,LIST A RECALL 6
,,,,,,,,,,,,,,,,,,,,,LIST A RECALL 6
,,,,,,,,,,,,,,,,,,,,,LIST A RECALL 6
,,,,,,,,,,,,,,,,,,,,,LIST A RECALL 6
,,,,,,,,,,,,,,,,,,,,,LIST A RECALL 6
,,,,,,,,,,,,,,,,,,,,,LIST A RECALL 6
,,,,,,,,,,,,,,,,,,,,,LIST A RECALL 6
,,,,,,,,,,,,,,,,,,,,,LIST A RECALL 6
,,,,,,,,,,,,,,,,,,,,,LIST A RECALL 6
,,,,,,,,,,,,,,,,,,,,,LIST A RECALL 6
,,,,,,,,,,,,,,,,,,,,,LIST A RECALL 6
,,,,,,,,,,,,,,,,,,,,,LIST A RECALL 6
,,,,,,,,,,,,,,,,,,,,,LIST A RECALL 6
,,,,,,,,,,,,,,,,,,,,,LIST A RECALL 6
,,,,,,,,,,,,,,,,,,,,,LIST A RECALL 6
,,,,,,,,,,,,,,,,,,,,,LIST A RECALL 6
,,,,,,,,,,,,,,,,,,,,,LIST A RECALL 6
,,,,,,,,,,,,,,,,,,,,,LIST A RECALL 6
,,,,,,,,,,,,,,,,,,,,,LIST A RECALL 6
,,,,,,,,,,,,,,,,,,,,,LIST A RECALL 6
,,,,,,,,,,,,,,,,,,,,,LIST A RECALL 6
,,,,,,,,,,,,,,,,,,,,,LIST A RECALL 6
,,,,,,,,,,,,,,,,,,,,,LIST A RECALL 6
,,,,,,,,,,,,,,,,,,,,,LIST A RECALL 6
,,,,,,,,,,,,,,,,,,,,,LIST A RECALL 6
,,,,,,,,,,,,,,,,,,,,,LIST A RECALL 6
,,,,,,,,,,,,,,,,,,,,,LIST A RECALL 6
,,,,,,,,,,,,,,,,,,,,,LIST A RECALL 6
,,,,,,,,,,,,,,,,,,,,,LIST A RECALL 6
,,,,,,,,,,,,,,,,,,,,,LIST A RECALL 6
,,,,,,,,,,,,,,,,,,,,,LIST A RECALL 6
,,,,,,,,,,,,,,,,,,,,,LIST A RECALL 6
,,,,,,,,,,,,,,,,,,,,,LIST A RECALL 6
,,,,,,,,,,,,,,,,,,,,,LIST A RECALL 6
,,,,,,,,,,,,,,,,,,,,,LIST A RECALL 6
,,,,,,,,,,,,,,,,,,,,,LIST A RECALL 6
,,,,,,,,,,,,,,,,,,,,,LIST A RECALL 6
,,,,,,,,,,,,,,,,,,,,,LIST A RECALL 6
,,,,,,,,,,,,,,,,,,,,,LIST A RECALL 6
,,,,,,,,,,,,,,,,,,,,,LIST A RECALL 6
,,,,,,,,,,,,,,,,,,,,,LIST A RECALL 6
,,,,,,,,,,,,,,,,,,,,,LIST A RECALL 6
,,,,,,,,,,,,,,,,,,,,,LIST A RECALL 6
,,,,,,,,,,,,,,,,,,,,,LIST A RECALL 6
,,,,,,,,,,,,,,,,,,,,,LIST A RECALL 6
,,,,,,,,,,,,,,,,,,,,,LIST A RECALL 6
,,,,,,,,,,,,,,,,,,,,,LIST A RECALL 6
,,,,,,,,,,,,,,,,,,,,,LIST A RECALL 6
,,,,,,,,,,,,,,,,,,,,,LIST A RECALL 6
,,,,,,,,,,,,,,,,,,,,,LIST A RECALL 6
,,,,,,,,,,,,,,,,,,,,,LIST A RECALL 6
,,,,,,,,,,,,,,,,,,,,,LIST A RECALL 6
,,,,,,,,,,,,,,,,,,,,,LIST A RECALL 6
,,,,,,,,,,,,,,,,,,,,,LIST A RECALL 6
,,,,,,,,,,,,,,,,,,,,,LIST A RECALL 6
,,,,,,,,,,,,,,,,,,,,,LIST A RECALL 6
,,,,,,,,,,,,,,,,,,,,,LIST A RECALL 6
,,,,,,,,,,,,,,,,,,,,,LIST A RECALL 6
,,,,,,,,,,,,,,,,,,,,,LIST A RECALL 6
,,,,,,,,,,,,,,,,,,,,,LIST A RECALL 6
,,,,,,,,,,,,,,,,,,,,,LIST A RECALL 6
,,,,,,,,,,,,,,,,,,,,,LIST A RECALL 6
,,,,,,,,,,,,,,,,,,,,,LIST A RECALL 6
,,,,,,,,,,,,,,,,,,,,,LIST A RECALL 6
,,,,,,,,,,,,,,,,,,,,,LIST A RECALL 6
,,,,,,,,,,,,,,,,,,,,,LIST A RECALL 6
,,,,,,,,,,,,,,,,,,,,,LIST A RECALL 6
,,,,,,,,,,,,,,,,,,,,,LIST A RECALL 6
,,,,,,,,,,,,,,,,,,,,,LIST A RECALL 6
,,,,,,,,,,,,,,,,,,,,,LIST A RECALL 6
,,,,,,,,,,,,,,,,,,,,,LIST A RECALL 6
,,,,,,,,,,,,,,,,,,,,,LIST A RECALL 6
,,,,,,,,,,,,,,,,,,,,,LIST A RECALL 6
,,,,,,,,,,,,,,,,,,,,,LIST A RECALL 6
,,,,,,,,,,,,,,,,,,,,,LIST A RECALL 6
,,,,,,,,,,,,,,,,,,,,,LIST A RECALL 6
,,,,,,,,,,,,,,,,,,,,,LIST A RECALL 6
,,,,,,,,,,,,,,,,,,,,,LIST A RECALL 6
,,,,,,,,,,,,,,,,,,,,,LIST A RECALL 6
,,,,,,,,,,,,,,,,,,,,,LIST A RECALL 6
,,,,,,,,,,,,,,,,,,,,,LIST A RECALL 6
,,,,,,,,,,,,,,,,,,,,,LIST A RECALL 6
,,,,,,,,,,,,,,,,,,,,,LIST A RECALL 6
,,,,,,,,,,,,,,,,,,,,,LIST A RECALL 6
,,,,,,,,,,,,,,,,,,,,,LIST A RECALL 6
,,,,,,,,,,,,,,,,,,,,,LIST A RECALL 6
,,,,,,,,,,,,,,,,,,,,,LIST A RECALL 6
,,,,,,,,,,,,,,,,,,,,,LIST A RECALL 6
,,,,,,,,,,,,,,,,,,,,,LIST A RECALL 6
,,,,,,,,,,,,,,,,,,,,,LIST A RECALL 6
,,,,,,,,,,,,,,,,,,,,,LIST A RECALL 6
,,,,,,,,,,,,,,,,,,,,,LIST A RECALL 6
,,,,,,,,,,,,,,,,,,,,,LIST A RECALL 6
,,,,,,,,,,,,,,,,,,,,,LIST A RECALL 6
,,,,,,,,,,,,,,,,,,,,,LIST A RECALL 6
,,,,,,,,,,,,,,,,,,,,,LIST A RECALL 6
,,,,,,,,,,,,,,,,,,,,,LIST A RECALL 6
,,,,,,,,,,,,,,,,,,,,,LIST A RECALL 6
,,,,,,,,,,,,,,,,,,,,,LIST A RECALL 6
,,,,,,,,,,,,,,,,,,,,,LIST A RECALL 6
,,,,,,,,,,,,,,,,,,,,,LIST A RECALL 6
,,,,,,,,,,,,,,,,,,,,,LIST A RECALL 6
,,,,,,,,,,,,,,,,,,,,,LIST A RECALL 6
,,,,,,,,,,,,,,,,,,,,,LIST A RECALL 6
,,,,,,,,,,,,,,,,,,,,,LIST A RECALL 6
,,,,,,,,,,,,,,,,,,,,,LIST A RECALL 6
,,,,,,,,,,,,,,,,,,,,,LIST A RECALL 6
,,,,,,,,,,,,,,,,,,,,,LIST A RECALL 6
,,,,,,,,,,,,,,,,,,,,,LIST A RECALL 6
,,,,,,,,,,,,,,,,,,,,,LIST A RECALL 6
,,,,,,,,,,,,,,,,,,,,,LIST A RECALL 6
,,,,,,,,,,,,,,,,,,,,,LIST A RECALL 6
,,,,,,,,,,,,,,,,,,,,,LIST A RECALL 6
,,,,,,,,,,,,,,,,,,,,,LIST A RECALL 6
,,,,,,,,,,,,,,,,,,,,,LIST A RECALL 6
,,,,,,,,,,,,,,,,,,,,,LIST A RECALL 6
,,,,,,,,,,,,,,,,,,,,,LIST A RECALL 6
,,,,,,,,,,,,,,,,,,,,,LIST A RECALL 6
,,,,,,,,,,,,,,,,,,,,,LIST A RECALL 6
,,,,,,,,,,,,,,,,,,,,,LIST A RECALL 6
,,,,,,,,,,,,,,,,,,,,,LIST A RECALL 6
,,,,,,,,,,,,,,,,,,,,,LIST A RECALL 6
,,,,,,,,,,,,,,,,,,,,,LIST A RECALL 6
,,,,,,,,,,,,,,,,,,,,,LIST A RECALL 6
,,,,,,,,,,,,,,,,,,,,,LIST A RECALL 6
,,,,,,,,,,,,,,,,,,,,,LIST A RECALL 6
,,,,,,,,,,,,,,,,,,,,,LIST A RECALL 6
,,,,,,,,,,,,,,,,,,,,,LIST A RECALL 6
,,,,,,,,,,,,,,,,,,,,,LIST A RECALL 6
,,,,,,,,,,,,,,,,,,,,,LIST A RECALL 6
,,,,,,,,,,,,,,,,,,,,,LIST A RECALL 6
,,,,,,,,,,,,,,,,,,,,,LIST A RECALL 6
,,,,,,,,,,,,,,,,,,,,,LIST A RECALL 6
,,,,,,,,,,,,,,,,,,,,,LIST A RECALL 6
,,,,,,,,,,,,,,,,,,,,,LIST A RECALL 6
,,,,,,,,,,,,,,,,,,,,,LIST A RECALL 6
,,,,,,,,,,,,,,,,,,,,,LIST A RECALL 6
,,,,,,,,,,,,,,,,,,,,,LIST A RECALL 6
,,,,,,,,,,,,,,,,,,,,,LIST A RECALL 6
,,,,,,,,,,,,,,,,,,,,,LIST A RECALL 6
,,,,,,,,,,,,,,,,,,,,,LIST A RECALL 6
,,,,,,,,,,,,,,,,,,,,,LIST A RECALL 6
,,,,,,,,,,,,,,,,,,,,,LIST A RECALL 6
,,,,,,,,,,,,,,,,,,,,,LIST A RECALL 6
,,,,,,,,,,,,,,,,,,,,,LIST A RECALL 6
,,,,,,,,,,,,,,,,,,,,,LIST A RECALL 6
,,,,,,,,,,,,,,,,,,,,,LIST A RECALL 6
,,,,,,,,,,,,,,,,,,,,,LIST A RECALL 6
,,,,,,,,,,,,,,,,,,,,,LIST A RECALL 6
,,,,,,,,,,,,,,,,,,,,,LIST A RECALL 6
,,,,,,,,,,,,,,,,,,,,,LIST A RECALL 6
,,,,,,,,,,,,,,,,,,,,,LIST A RECALL 6
,,,,,,,,,,,,,,,,,,,,,LIST A RECALL 6
,,,,,,,,,,,,,,,,,,,,,LIST A RECALL 6
,,,,,,,,,,,,,,,,,,,,,LIST A RECALL 6
,,,,,,,,,,,,,,,,,,,,,LIST A RECALL 6
,,,,,,,,,,,,,,,,,,,,,LIST A RECALL 6
,,,,,,,,,,,,,,,,,,,,,LIST A RECALL 6
,,,,,,,,,,,,,,,,,,,,,LIST A RECALL 6
,,,,,,,,,,,,,,,,,,,,,LIST A RECALL 6
,,,,,,,,,,,,,,,,,,,,,LIST A RECALL 6
,,,,,,,,,,,,,,,,,,,,,LIST A RECALL 6
,,,,,,,,,,,,,,,,,,,,,LIST A RECALL 6
,,,,,,,,,,,,,,,,,,,,,LIST A RECALL 6
,,,,,,,,,,,,,,,,,,,,,LIST A RECALL 6
,,,,,,,,,,,,,,,,,,,,,LIST A RECALL 6
,,,,,,,,,,,,,,,,,,,,,LIST A RECALL 6
,,,,,,,,,,,,,,,,,,,,,LIST A RECALL 6
,,,,,,,,,,,,,,,,,,,,,LIST A RECALL 6
,,,,,,,,,,,,,,,,,,,,,LIST A RECALL 6
,,,,,,,,,,,,,,,,,,,,,LIST A RECALL 6
,,,,,,,,,,,,,,,,,,,,,LIST A RECALL 6
,,,,,,,,,,,,,,,,,,,,,LIST A RECALL 6
,,,,,,,,,,,,,,,,,,,,,LIST A RECALL 6
,,,,,,,,,,,,,,,,,,,,,LIST A RECALL 6
,,,,,,,,,,,,,,,,,,,,,LIST A RECALL 6
,,,,,,,,,,,,,,,,,,,,,LIST A RECALL 6
,,,,,,,,,,,,,,,,,,,,,LIST A RECALL 6
,,,,,,,,,,,,,,,,,,,,,LIST A RECALL 6
,,,,,,,,,,,,,,,,,,,,,LIST A RECALL 6
,,,,,,,,,,,,,,,,,,,,,LIST A RECALL 6
,,,,,,,,,,,,,,,,,,,,,LIST A RECALL 6
,,,,,,,,,,,,,,,,,,,,,LIST A RECALL 6
,,,,,,,,,,,,,,,,,,,,,LIST A RECALL 6
,,,,,,,,,,,,,,,,,,,,,LIST A RECALL 6
,,,,,,,,,,,,,,,,,,,,,LIST A RECALL 6
,,,,,,,,,,,,,,,,,,,,,LIST A RECALL 6
,,,,,,,,,,,,,,,,,,,,,LIST A RECALL 6
,,,,,,,,,,,,,,,,,,,,,LIST A RECALL 6
,,,,,,,,,,,,,,,,,,,,,LIST A RECALL 6
,,,,,,,,,,,,,,,,,,,,,LIST A RECALL 6
,,,,,,,,,,,,,,,,,,,,,LIST A RECALL 6
,,,,,,,,,,,,,,,,,,,,,LIST A RECALL 6
,,,,,,,,,,,,,,,,,,,,,LIST A RECALL 6
,,,,,,,,,,,,,,,,,,,,,LIST A RECALL 6
,,,,,,,,,,,,,,,,,,,,,LIST A RECALL 6
,,,,,,,,,,,,,,,,,,,,,LIST A RECALL 6
,,,,,,,,,,,,,,,,,,,,,LIST A RECALL 6
,,,,,,,,,,,,,,,,,,,,,LIST A RECALL 6
,,,,,,,,,,,,,,,,,,,,,LIST A RECALL 6
,,,,,,,,,,,,,,,,,,,,,LIST A RECALL 6
,,,,,,,,,,,,,,,,,,,,,LIST A RECALL 6
,,,,,,,,,,,,,,,,,,,,,LIST A RECALL 6
,,,,,,,,,,,,,,,,,,,,,LIST A RECALL 6
,,,,,,,,,,,,,,,,,,,,,LIST A RECALL 6
,,,,,,,,,,,,,,,,,,,,,LIST A RECALL 6
,,,,,,,,,,,,,,,,,,,,,LIST A RECALL 6
,,,,,,,,,,,,,,,,,,,,,LIST A RECALL 6
,,,,,,,,,,,,,,,,,,,,,LIST A RECALL 6
,,,,,,,,,,,,,,,,,,,,,LIST A RECALL 6
,,,,,,,,,,,,,,,,,,,,,LIST A RECALL 6
,,,,,,,,,,,,,,,,,,,,,LIST A RECALL 6
,,,,,,,,,,,,,,,,,,,,,LIST A RECALL 6
,,,,,,,,,,,,,,,,,,,,,LIST A RECALL 6
,,,,,,,,,,,,,,,,,,,,,LIST A RECALL 6
,,,,,,,,,,,,,,,,,,,,,LIST A RECALL 6
,,,,,,,,,,,,,,,,,,,,,LIST A RECALL 6
,,,,,,,,,,,,,,,,,,,,,LIST A RECALL 6
,,,,,,,,,,,,,,,,,,,,,LIST A RECALL 6
,,,,,,,,,,,,,,,,,,,,,LIST A RECALL 6
,,,,,,,,,,,,,,,,,,,,,LIST A RECALL 6
,,,,,,,,,,,,,,,,,,,,,LIST A RECALL 6
,,,,,,,,,,,,,,,,,,,,,LIST A RECALL 6
,,,,,,,,,,,,,,,,,,,,,LIST A RECALL 6
,,,,,,,,,,,,,,,,,,,,,LIST A RECALL 6
,,,,,,,,,,,,,,,,,,,,,LIST A RECALL 6
,,,,,,,,,,,,,,,,,,,,,LIST A RECALL 6
,,,,,,,,,,,,,,,,,,,,,LIST A RECALL 6
,,,,,,,,,,,,,,,,,,,,,LIST A RECALL 6
,,,,,,,,,,,,,,,,,,,,,LIST A RECALL 6
,,,,,,,,,,,,,,,,,,,,,LIST A RECALL 6
,,,,,,,,,,,,,,,,,,,,,LIST A RECALL 6
,,,,,,,,,,,,,,,,,,,,,LIST A RECALL 6
,,,,,,,,,,,,,,,,,,,,,LIST A RECALL 6
,,,,,,,,,,,,,,,,,,,,,LIST A RECALL 6
,,,,,,,,,,,,,,,,,,,,,LIST A RECALL 6
,,,,,,,,,,,,,,,,,,,,,LIST A RECALL 6
,,,,,,,,,,,,,,,,,,,,,LIST A RECALL 6
,,,,,,,,,,,,,,,,,,,,,LIST A RECALL 6
,,,,,,,,,,,,,,,,,,,,,LIST A RECALL 6
,,,,,,,,,,,,,,,,,,,,,LIST A RECALL 6
,,,,,,,,,,,,,,,,,,,,,LIST A RECALL 6
,,,,,,,,,,,,,,,,,,,,,LIST A RECALL 6
,,,,,,,,,,,,,,,,,,,,,LIST A RECALL 6
,,,,,,,,,,,,,,,,,,,,,LIST A RECALL 6
,,,,,,,,,,,,,,,,,,,,,LIST A RECALL 6
,,,,,,,,,,,,,,,,,,,,,LIST A RECALL 6
,,,,,,,,,,,,,,,,,,,,,LIST A RECALL 6
,,,,,,,,,,,,,,,,,,,,,LIST A RECALL 6
,,,,,,,,,,,,,,,,,,,,,LIST A RECALL 6
,,,,,,,,,,,,,,,,,,,,,LIST A RECALL 6
,,,,,,,,,,,,,,,,,,,,,LIST A RECALL 6
,,,,,,,,,,,,,,,,,,,,,LIST A RECALL 6
,,,,,,,,,,,,,,,,,,,,,LIST A RECALL 6
,,,,,,,,,,,,,,,,,,,,,LIST A RECALL 6
,,,,,,,,,,,,,,,,,,,,,LIST A RECALL 6
,,,,,,,,,,,,,,,,,,,,,LIST A RECALL 6
,,,,,,,,,,,,,,,,,,,,,LIST A RECALL 6
,,,,,,,,,,,,,,,,,,,,,LIST A RECALL 6
,,,,,,,,,,,,,,,,,,,,,LIST A RECALL 6
,,,,,,,,,,,,,,,,,,,,,LIST A RECALL 6
,,,,,,,,,,,,,,,,,,,,,LIST A RECALL 6
,,,,,,,,,,,,,,,,,,,,,LIST A RECALL 6
,,,,,,,,,,,,,,,,,,,,,LIST A RECALL 6
,,,,,,,,,,,,,,,,,,,,,LIST A RECALL 6
,,,,,,,,,,,,,,,,,,,,,LIST A RECALL 6
,,,,,,,,,,,,,,,,,,,,,LIST A RECALL 6
,,,,,,,,,,,,,,,,,,,,,LIST A RECALL 6
,,,,,,,,,,,,,,,,,,,,,LIST A RECALL 6
,,,,,,,,,,,,,,,,,,,,,LIST A RECALL 6
,,,,,,,,,,,,,,,,,,,,,LIST A RECALL 6
,,,,,,,,,,,,,,,,,,,,,LIST A RECALL 6
,,,,,,,,,,,,,,,,,,,,,LIST A RECALL 6
,,,,,,,,,,,,,,,,,,,,,LIST A RECALL 6
,,,,,,,,,,,,,,,,,,,,,LIST A RECALL 6
,,,,,,,,,,,,,,,,,,,,,LIST A RECALL 6
,,,,,,,,,,,,,,,,,,,,,LIST A RECALL 6
,,,,,,,,,,,,,,,,,,,,,LIST A RECALL 6
,,,,,,,,,,,,,,,,,,,,,LIST A RECALL 6
,,,,,,,,,,,,,,,,,,,,,LIST A RECALL 6
,,,,,,,,,,,,,,,,,,,,,LIST A RECALL 6
,,,,,,,,,,,,,,,,,,,,,LIST A RECALL 6
,,,,,,,,,,,,,,,,,,,,,LIST A RECALL 6
,,,,,,,,,,,,,,,,,,,,,LIST A RECALL 6
,,,,,,,,,,,,,,,,,,,,,LIST A RECALL 6
,,,,,,,,,,,,,,,,,,,,,LIST A RECALL 6
,,,,,,,,,,,,,,,,,,,,,LIST A RECALL 6
,,,,,,,,,,,,,,,,,,,,,LIST A RECALL 6
,,,,,,,,,,,,,,,,,,,,,LIST A RECALL 6
,,,,,,,,,,,,,,,,,,,,,LIST A RECALL 6
,,,,,,,,,,,,,,,,,,,,,LIST A RECALL 6
,,,,,,,,,,,,,,,,,,,,,LIST A RECALL 6
,,,,,,,,,,,,,,,,,,,,,LIST A RECALL 6
,,,,,,,,,,,,,,,,,,,,,LIST A RECALL 6
,,,,,,,,,,,,,,,,,,,,,LIST A RECALL 6
,,,,,,,,,,,,,,,,,,,,,LIST A RECALL 6
,,,,,,,,,,,,,,,,,,,,,LIST A RECALL 6
,,,,,,,,,,,,,,,,,,,,,LIST A RECALL 6
,,,,,,,,,,,,,,,,,,,,,LIST A RECALL 6
,,,,,,,,,,,,,,,,,,,,,LIST A RECALL 6
,,,,,,,,,,,,,,,,,,,,,LIST A RECALL 6
,,,,,,,,,,,,,,,,,,,,,LIST A RECALL 6
,,,,,,,,,,,,,,,,,,,,,LIST A RECALL 6
,,,,,,,,,,,,,,,,,,,,,LIST A RECALL 6
,,,,,,,,,,,,,,,,,,,,,LIST A RECALL 6
,,,,,,,,,,,,,,,,,,,,,LIST A RECALL 6
,,,,,,,,,,,,,,,,,,,,,LIST A RECALL 6
,,,,,,,,,,,,,,,,,,,,,LIST A RECALL 6
,,,,,,,,,,,,,,,,,,,,,LIST A RECALL 6
,,,,,,,,,,,,,,,,,,,,,LIST A RECALL 6
,,,,,,,,,,,,,,,,,,,,,LIST A RECALL 6
,,,,,,,,,,,,,,,,,,,,,LIST A RECALL 6
,,,,,,,,,,,,,,,,,,,,,LIST A RECALL 6
,,,,,,,,,,,,,,,,,,,,,LIST A RECALL 6
,,,,,,,,,,,,,,,,,,,,,LIST A RECALL 6
,,,,,,,,,,,,,,,,,,,,,LIST A RECALL 6
,,,,,,,,,,,,,,,,,,,,,LIST A RECALL 6
,,,,,,,,,,,,,,,,,,,,,LIST A RECALL 6
,,,,,,,,,,,,,,,,,,,,,LIST A RECALL 6
,,,,,,,,,,,,,,,,,,,,,LIST A RECALL 6
,,,,,,,,,,,,,,,,,,,,,LIST A RECALL 6
,,,,,,,,,,,,,,,,,,,,,LIST A RECALL 6
,,,,,,,,,,,,,,,,,,,,,LIST A RECALL 6
,,,,,,,,,,,,,,,,,,,,,LIST A RECALL 6
,,,,,,,,,,,,,,,,,,,,,LIST A RECALL 6
,,,,,,,,,,,,,,,,,,,,,LIST A RECALL 6
,,,,,,,,,,,,,,,,,,,,,LIST A RECALL 6
,,,,,,,,,,,,,,,,,,,,,LIST A RECALL 6
,,,,,,,,,,,,,,,,,,,,,LIST A RECALL 6
,,,,,,,,,,,,,,,,,,,,,LIST A RECALL 6
,,,,,,,,,,,,,,,,,,,,,LIST A RECALL 6
,,,,,,,,,,,,,,,,,,,,,LIST A RECALL 6
,,,,,,,,,,,,,,,,,,,,,LIST A RECALL 6
,,,,,,,,,,,,,,,,,,,,,LIST A RECALL 6
,,,,,,,,,,,,,,,,,,,,,LIST A RECALL 6
,,,,,,,,,,,,,,,,,,,,,LIST A RECALL 6
,,,,,,,,,,,,,,,,,,,,,LIST A RECALL 6
,,,,,,,,,,,,,,,,,,,,,LIST A RECALL 6
,,,,,,,,,,,,,,,,,,,,,LIST A RECALL 6
