STUDYID,DOMAIN,USUBJID,EGSEQ,EGTESTCD,EGTEST,EGORRES,EGORRESU,EGSTRESC,EGSTRESN,EGSTRESU,EGSTAT,EGREASND,EGREPNUM,VISITNUM,VISIT,EGDTC,EGDY,EGTPT,EGTPTNUM,EGELTM,EGTPTREF,EGRFTDTC
CDISCPILOT01,EG,TEST123,1,QTCFAG,"QTcF Interval, Aggregate",350,msec,350,350,msec,,,1,1,DAY1,2022-01-14,,PREDOSE,-1,,DOSE,
CDISCPILOT01,EG,TEST123,2,QTCFAG,"QTcF Interval, Aggregate",351,msec,350,350,msec,,,2,1,DAY1,2022-01-14T07:00,,PREDOSE,-1,,DOSE,
CDISCPILOT01,EG,TEST123,3,QTCFAG,"QTcF Interval, Aggregate",352,msec,350,350,msec,,,3,1,DAY1,2022-01-14,,PREDOSE,-1,,DOSE,
CDISCPILOT01,EG,TEST123,4,QTCFAG,"QTcF Interval, Aggregate",353,msec,350,350,msec,,,1,2,DAY1,2022-01-20T13:01,,6H,360,,DOSE,
CDISCPILOT01,EG,TEST123,5,QTCFAG,"QTcF Interval, Aggregate",354,msec,350,350,msec,,,2,2,DAY1,2022-01-20T13:01,,6H,360,,DOSE,
CDISCPILOT01,EG,TEST123,6,QTCFAG,"QTcF Interval, Aggregate",355,msec,350,350,msec,,,3,2,DAY1,2022-01-20T13:02,,6H,360,,DOSE,
