STUDYID,DOMAIN,USUBJID,VSSEQ,VSTESTCD,VSTEST,VSORRES,VSORRESU,VSSTRESC,VSSTRESN,VSSTRESU,VSSTAT,VSDTC
1234,VS,123101,1,SYSBP,Systolic Blood Pressure,154,mmHg,154,154,mmHg,,2022-02-01
1234,VS,123101,2,DIABP,Diastolic Blood Pressure,44,mmHg,44,44,mmHg,,2022-02-01
1234,VS,123101,2,HR,Heart Rate,>200,beats/min,>200,,beats/min,,2022-02-01
