dataset,variable,label,type,length
ds.xpt,STUDYID,Study Identifier,Char,12
ds.xpt,DOMAIN,Domain Abbreviation,Char,2
ds.xpt,USUBJID,Unique Subject Identifier,Char,20
ds.xpt,DSTERM,Reported Term for the Disposition Event,Char,200
ds.xpt,DSDECOD,Reported Term for the Disposition Event,Char,200
ds.xpt,DSCAT,Reported Term for the Disposition Event,Char,200
ds.xpt,EPOCH,Epoch,Char,50
ds.xpt,DSSTDTC,Date/Time of Informed Consent,Char,19
