STUDYID,DOMAIN,USUBJID,AETERM,AESER,AEOUT,AESDTH,AESTDTC,AEENDTC
CDISCPILOT01,AE,CDISC001,INFUSION ASSOCIATE REACTION,N,NOT RECOVERED/NOT RESOLVED,,2018-02-20,2018-02-20
CDISCPILOT01,AE,CDISC001,INSOMNIA,N,RECOVERED/RESOLVED,,2018-02-22,2018-10-30
CDISCPILOT01,AE,CDISC001,LETHARGY,N,RECOVERED/RESOLVED,,2018-02-22,2018-06-12
CDISCPILOT01,AE,CDISC002,FATIGUE,N,RECOVERED/RESOLVED,,2018-05-02,2018-10-22
CDISCPILOT01,AE,CDISC002,CRAMPS (UNKNOWN LOCATION),N,RECOVERED/RESOLVED,,2018-04,2019-03
CDISCPILOT01,AE,CDISC002,LEFT HIP PAIN,N,RECOVERED/RESOLVED,,2019-01-14,2018-09-04
