STUDYID,DOMAIN,USUBJID,EXSEQ,EXLNKID,EXTRT,EXCAT,EXSCAT
ABC,EX,ABC1001,1.0,A2-20110114,DRUG X,FIRST TO LAST DOSE INTERVAL
ABC,EX,ABC2001,1.0,A2-20110114,DRUG Z,EXCEPTION DOSE,HIGHLIGHTED DOSE
ABC,EX,ABC2001,2.0,A2-20110125,DRUG Z,EXCEPTION DOSE,HIGHLIGHTED DOSE
