STUDYID,DOMAIN,USUBJID,FOCID,MISEQ,MISPID,MITESTCD,MITEST,MIORRES,MISTRESC,MIRESCAT,MISPEC
CDISC-TEST,MI,CDISC-TEST-001,,1,,MIEXAM,Microscopic Examination ,"Amyloidosis, grade 2 ",AMYLOID,NON-NEOPLASMIC,TESTIS/EPIDIDYMIS 
CDISC-TEST,MI,CDISC-TEST-001,,2,,MIEXAM,Microscopic Examination ,"Amyloidosis, grade 2 ",AMYLOID,NON-NEOPLASMIC,TESTIS/EPIDIDYMIS 
CDISC-TEST,MI,CDISC-TEST-001,,3,,MIEXAM,Microscopic Examination ,Sarcoma: endometrial stromal,"STROMAL SARCOMA, ENDOMETRIAL, MALIGNANT",MALIGNANT,UTERUS
CDISC-TEST,MI,CDISC-TEST-001,,4,,MIEXAM,Microscopic Examination ,Adenoma: tubulostromal,"ADENOMA, TUBULOSTROMAL, BENIGN",BENIGN,OVARY
CDISC-TEST,MI,CDISC-TEST-002,,1,,MIEXAM,Microscopic Examination ,Sarcoma: endometrial stromal,"STROMAL SARCOMA, ENDOMETRIAL, MALIGNANT",METASTATIC,UTERUS
CDISC-TEST,MI,CDISC-TEST-002,,2,,MIEXAM,Microscopic Examination ,Adenoma: tubulostromal,"ADENOMA, TUBULOSTROMAL, BENIGN",BENIGN,OVARY
