dataset,variable,label,type,length
relrec.xpt,STUDYID,Study Identifier,Char,12
relrec.xpt,RDOMAIN,Related Domain Abbreviation,Char,6
relrec.xpt,USUBJID,Unique Subject Identifier,Char,8
relrec.xpt,IDVAR,Identifying Variable,Char,200
relrec.xpt,IDVARVAL,Identifying Variable Value,Char,200
relrec.xpt,RELTYPE,Relationship Type,Char,4
relrec.xpt,RELID,Relationship Identifier,Char,200
