STUDYID,DOMAIN,USUBJID,LBSEQ,LBSPID,LBTESTCD,LBTEST,LBCAT,LBORRES,LBORRESU,LBORNRLO,LBORNRHI,LBSTRESC,LBSTRESN,LBSTRESU,LBSTNRLO,LBSTNRHI,LBNRIND,LBLOINC,LBSPEC,LBBLFL,EPOCH,VISITNUM,VISIT,LBDTC,LBDY
ABC123,LB,123101,1,46,ALB,Albumin,BIOCHEMISTRY,4.46,g/dL,,,4.46,4.46,g/dL,,,,1751-7,SERUM,,SCREENING,100,VISIT 1 (WEEK -2),2005-09-28 00:00:00,-15
ABC123,LB,123101,2,37,ALB,Albumin,BIOCHEMISTRY,4.31,g/dL,,,4.31,4.31,g/dL,,,,1751-7,SERUM,,TREATMENT,200,VISIT 2 (WEEK 0),2005-10-13 00:00:00,1
ABC123,LB,123101,3,21,ALB,Albumin,BIOCHEMISTRY,3.62,g/dL,,,3.62,3.62,g/dL,,,,1751-7,SERUM,,TREATMENT,2200,VISIT 22 (WEEK 20),2006-03-02 00:00:00,141
ABC123,LB,123101,4,11,ALB,Albumin,BIOCHEMISTRY,4.17,g/dL,,,4.17,4.17,g/dL,,,,1751-7,SERUM,,,2900,END OF TRIAL,2006-05-13 00:00:00,213
ABC123,LB,123101,5,43,ALT,Alanine Aminotransferase,BIOCHEMISTRY,14.99,U/L,,,14.99,14.99,U/L,,,,1742-6,SERUM,,,100,VISIT 1 (WEEK -2),2005-09-28 00:00:00,-15
ABC123,LB,123101,6,34,ALT,Alanine Aminotransferase,BIOCHEMISTRY,38.09,U/L,,,38.09,38.09,U/L,,,,1742-6,SERUM,,,200,VISIT 2 (WEEK 0),2005-10-13 00:00:00,1
ABC123,LB,123101,7,18,ALT,Alanine Aminotransferase,BIOCHEMISTRY,12.98,U/L,,,12.98,12.98,U/L,,,,1742-6,SERUM,,TREATMENT,2200,VISIT 22 (WEEK 20),2006-03-02 00:00:00,141
ABC123,LB,123101,8,8,ALT,Alanine Aminotransferase,BIOCHEMISTRY,15.6,U/L,,,15.6,15.6,U/L,,,,1742-6,SERUM,,FOLLOW-UP,2900,END OF TRIAL,2006-05-13 00:00:00,213
ABC123,LB,123101,9,39,CHOL,Cholesterol,LIPIDS,5.25,mmol/L,,,5.25,5.25,mmol/L,,,,2093-3,SERUM,,SCREENING,100,VISIT 1 (WEEK -2),2005-09-28 00:00:00,-15
ABC123,LB,123101,10,30,CHOL,Cholesterol,LIPIDS,2.93,mmol/L,,,2.93,2.93,mmol/L,,,,2093-3,SERUM,,TREATMENT,200,VISIT 2 (WEEK 0),2005-10-13 00:00:00,1
ABC123,LB,123101,11,14,CHOL,Cholesterol,LIPIDS,6.13,mmol/L,,,6.13,6.13,mmol/L,,,,2093-3,SERUM,,TREATMENT,2200,VISIT 22 (WEEK 20),2006-03-02 00:00:00,141
ABC123,LB,123101,12,4,CHOL,Cholesterol,LIPIDS,2.32,mmol/L,,,2.32,2.32,mmol/L,,,,2093-3,SERUM,,FOLLOW-UP,2900,END OF TRIAL,2006-05-13 00:00:00,213
ABC123,LB,123101,13,38,CREAT,Creatinine,BIOCHEMISTRY,143.53,umol/L,,,143.53,143.53,umol/L,,,,14682-9,SERUM,,SCREENING,100,VISIT 1 (WEEK -2),2005-09-28 00:00:00,-15
ABC123,LB,123101,14,28,CREAT,Creatinine,BIOCHEMISTRY,120.29,umol/L,,,120.29,120.29,umol/L,,,,14682-9,SERUM,,TREATMENT,200,VISIT 2 (WEEK 0),2005-10-13 00:00:00,1
ABC123,LB,123101,15,12,CREAT,Creatinine,BIOCHEMISTRY,112.78,umol/L,,,112.78,112.78,umol/L,,,,14682-9,SERUM,,TREATMENT,2200,VISIT 22 (WEEK 20),2006-03-02 00:00:00,141
ABC123,LB,123101,16,2,CREAT,Creatinine,BIOCHEMISTRY,182.12,umol/L,,,182.12,182.12,umol/L,,,,14682-9,SERUM,,FOLLOW-UP,2900,END OF TRIAL,2006-05-13 00:00:00,213
ABC123,LB,123101,17,29,HBA1CHGB,Hemoglobin A1C/Hemoglobin,GLUCOSE METABOLISM,50.2,mmol/mol,,,50.2,50.2,mmol/mol,,,,59261-8,BLOOD,,TREATMENT,200,VISIT 2 (WEEK 0),2005-10-13 00:00:00,1
ABC123,LB,123101,18,27,HBA1CHGB,Hemoglobin A1C/Hemoglobin,GLUCOSE METABOLISM,90.84,mmol/mol,,,90.84,90.84,mmol/mol,,,,59261-8,BLOOD,,TREATMENT,300,VISIT 3 (WEEK 1),2005-10-20 00:00:00,8
ABC123,LB,123101,19,23,HBA1CHGB,Hemoglobin A1C/Hemoglobin,GLUCOSE METABOLISM,27.29,mmol/mol,,,27.29,27.29,mmol/mol,,,,59261-8,BLOOD,,TREATMENT,900,VISIT 9 (WEEK 7),2005-12-01 00:00:00,50
ABC123,LB,123101,20,24,HBA1CHGB,Hemoglobin A1C/Hemoglobin,GLUCOSE METABOLISM,68.38,mmol/mol,,,68.38,68.38,mmol/mol,,,,59261-8,BLOOD,,TREATMENT,1400,VISIT 14 (WEEK 12),2006-01-05 00:00:00,85
ABC123,LB,123101,21,25,HBA1CHGB,Hemoglobin A1C/Hemoglobin,GLUCOSE METABOLISM,94.22,mmol/mol,,,94.22,94.22,mmol/mol,,,,59261-8,BLOOD,,TREATMENT,1900,VISIT 19 (WEEK 17),2006-02-09 00:00:00,120
ABC123,LB,123101,22,26,HBA1CHGB,Hemoglobin A1C/Hemoglobin,GLUCOSE METABOLISM,33.23,mmol/mol,,,33.23,33.23,mmol/mol,,,,59261-8,BLOOD,,TREATMENT,2000,VISIT 20 (WEEK 18),2006-02-16 00:00:00,127
ABC123,LB,123101,23,1,HBA1CHGB,Hemoglobin A1C/Hemoglobin,GLUCOSE METABOLISM,53.62,mmol/mol,,,53.62,53.62,mmol/mol,,,,59261-8,BLOOD,,TREATMENT,2100,VISIT 21 (WEEK 19),2006-02-23 00:00:00,134
ABC123,LB,123101,24,13,HBA1CHGB,Hemoglobin A1C/Hemoglobin,GLUCOSE METABOLISM,34.48,mmol/mol,,,34.48,34.48,mmol/mol,,,,59261-8,BLOOD,,TREATMENT,2200,VISIT 22 (WEEK 20),2006-03-02 00:00:00,141
ABC123,LB,123101,25,22,HBA1CHGB,Hemoglobin A1C/Hemoglobin,GLUCOSE METABOLISM,77.87,mmol/mol,,,77.87,77.87,mmol/mol,,,,59261-8,BLOOD,,TREATMENT,2800,VISIT 28 (WEEK 26),2006-04-13 00:00:00,183
ABC123,LB,123101,26,3,HBA1CHGB,Hemoglobin A1C/Hemoglobin,GLUCOSE METABOLISM,68.43,mmol/mol,,,68.43,68.43,mmol/mol,,,,59261-8,BLOOD,,FOLLOW-UP,2900,END OF TRIAL,2006-05-13 00:00:00,213
ABC123,LB,123101,27,45,HCT,Hematocrit,HAEMATOLOGY,41.62,%,,,41.62,41.62,%,,,,20570-8,BLOOD,,SCREENING,100,VISIT 1 (WEEK -2),2005-09-28 00:00:00,-15
ABC123,LB,123101,28,36,HCT,Hematocrit,HAEMATOLOGY,38.22,%,,,38.22,38.22,%,,,,20570-8,BLOOD,,TREATMENT,200,VISIT 2 (WEEK 0),2005-10-13 00:00:00,1
ABC123,LB,123101,29,20,HCT,Hematocrit,HAEMATOLOGY,39.69,%,,,39.69,39.69,%,,,,20570-8,BLOOD,,TREATMENT,2200,VISIT 22 (WEEK 20),2006-03-02 00:00:00,141
ABC123,LB,123101,30,10,HCT,Hematocrit,HAEMATOLOGY,44.36,%,,,44.36,44.36,%,,,,20570-8,BLOOD,,FOLLOW-UP,2900,END OF TRIAL,2006-05-13 00:00:00,213
ABC123,LB,123101,31,44,HDL,HDL Cholesterol,LIPIDS,1.94,mmol/L,,,1.94,1.94,mmol/L,,,,14646-4,SERUM,,SCREENING,100,VISIT 1 (WEEK -2),2005-09-28 00:00:00,-15
ABC123,LB,123101,32,35,HDL,HDL Cholesterol,LIPIDS,0.9,mmol/L,,,0.9,0.9,mmol/L,,,,14646-4,SERUM,,TREATMENT,200,VISIT 2 (WEEK 0),2005-10-13 00:00:00,1
ABC123,LB,123101,33,19,HDL,HDL Cholesterol,LIPIDS,0.36,mmol/L,,,0.36,0.36,mmol/L,,,,14646-4,SERUM,,TREATMENT,2200,VISIT 22 (WEEK 20),2006-03-02 00:00:00,141
ABC123,LB,123101,34,9,HDL,HDL Cholesterol,LIPIDS,1.55,mmol/L,,,1.55,1.55,mmol/L,,,,14646-4,SERUM,,FOLLOW-UP,2900,END OF TRIAL,2006-05-13 00:00:00,213
ABC123,LB,123101,35,42,HGB,Hemoglobin,HAEMATOLOGY,9.01,mmol/L,,,9.01,9.01,mmol/L,,,,718-7,BLOOD,,SCREENING,100,VISIT 1 (WEEK -2),2005-09-28 00:00:00,-15
ABC123,LB,123101,36,33,HGB,Hemoglobin,HAEMATOLOGY,8.28,mmol/L,,,8.28,8.28,mmol/L,,,,718-7,BLOOD,,TREATMENT,200,VISIT 2 (WEEK 0),2005-10-13 00:00:00,1
ABC123,LB,123101,37,17,HGB,Hemoglobin,HAEMATOLOGY,6.91,mmol/L,,,6.91,6.91,mmol/L,,,,718-7,BLOOD,,TREATMENT,2200,VISIT 22 (WEEK 20),2006-03-02 00:00:00,141
ABC123,LB,123101,38,7,HGB,Hemoglobin,HAEMATOLOGY,8.67,mmol/L,,,8.67,8.67,mmol/L,,,,718-7,BLOOD,,FOLLOW-UP,2900,END OF TRIAL,2006-05-13 00:00:00,213
ABC123,LB,123101,39,41,LDL,LDL Cholesterol,LIPIDS,0.52,mmol/L,,,0.52,0.52,mmol/L,,,,22748-8,SERUM,,SCREENING,100,VISIT 1 (WEEK -2),2005-09-28 00:00:00,-15
ABC123,LB,123101,40,32,LDL,LDL Cholesterol,LIPIDS,2.76,mmol/L,,,2.76,2.76,mmol/L,,,,22748-8,SERUM,,TREATMENT,200,VISIT 2 (WEEK 0),2005-10-13 00:00:00,1
ABC123,LB,123101,41,16,LDL,LDL Cholesterol,LIPIDS,2.32,mmol/L,,,2.32,2.32,mmol/L,,,,22748-8,SERUM,,TREATMENT,2200,VISIT 22 (WEEK 20),2006-03-02 00:00:00,141
ABC123,LB,123101,42,6,LDL,LDL Cholesterol,LIPIDS,1.84,mmol/L,,,1.84,1.84,mmol/L,,,,22748-8,SERUM,,FOLLOW-UP,2900,END OF TRIAL,2006-05-13 00:00:00,213
ABC123,LB,123101,43,40,PLAT,Platelets,HAEMATOLOGY,231.11,10^9/L,,,231.11,231.11,10^9/L,,,,26515-7,BLOOD,,SCREENING,100,VISIT 1 (WEEK -2),2005-09-28 00:00:00,-15
ABC123,LB,123101,44,31,PLAT,Platelets,HAEMATOLOGY,159.33,10^9/L,,,159.33,159.33,10^9/L,,,,26515-7,BLOOD,,TREATMENT,200,VISIT 2 (WEEK 0),2005-10-13 00:00:00,1
ABC123,LB,123101,45,15,PLAT,Platelets,HAEMATOLOGY,254.02,10^9/L,,,254.02,254.02,10^9/L,,,,26515-7,BLOOD,,TREATMENT,2200,VISIT 22 (WEEK 20),2006-03-02 00:00:00,141
ABC123,LB,123101,46,5,PLAT,Platelets,HAEMATOLOGY,233.35,10^9/L,,,233.35,233.35,10^9/L,,,,26515-7,BLOOD,,FOLLOW-UP,2900,END OF TRIAL,2006-05-13 00:00:00,213
