STUDYID,DOMAIN,USUBJID,AESEQ,AELNKID,AETERM,AELLT,AELLTCD,AEDECOD,AEPTCD,AEHLT,AEHLTCD,AEHLGT,AEHLGTCD,AECAT,AEBODSYS,AEBDSYCD,AESOC,AESOCCD,AESEV,AESER,AEACN,AEREL,AEOUT,AESCAN,AESCONG,AESDISAB,AESDTH,AESHOSP,AESLIFE,AESOD,EPOCH,AESTDTC,AEENDTC,AESTDY,AEENDY,AEENRTPT,AEENTPT
CDISCPILOT01,AE,CDISC005,1,1,INJECTION SITE REACTION,,,INJECTION SITE REACTION,,,,,,,,,,,MILD,N,DOSE NOT CHANGED,RELATED,RECOVERED/RESOLVED,N,N,N,N,N,N,N,TREATMENT,2013-02-07,2013-02-07,4,4,,
CDISCPILOT01,AE,CDISC005,2,2,INJECTION SITE REACTION,,,INJECTION SITE REACTION,,,,,,AESI,,,,,MILD,N,DOSE NOT CHANGED,POSSIBLY RELATED,NOT RECOVERED/NOT RESOLVED,N,N,N,N,N,N,N,TREATMENT,2013-03-23,,48,,ONGOING,2013-08-06
CDISCPILOT01,AE,CDISC005,3,4,INJECTION SITE REACTION,,,INJECTION SITE REACTION,,,,,,,,,,,MILD,N,DOSE NOT CHANGED,POSSIBLY RELATED,RECOVERED/RESOLVED,N,N,N,N,N,N,N,TREATMENT,2013-03-23,2013-03-26,48,51,,
CDISCPILOT01,AE,CDISC005,4,5,INJECTION SITE REACTION,,,INJECTION SITE REACTION,,,,,,HEADACHE,,,,,MILD,N,DOSE NOT CHANGED,POSSIBLY RELATED,NOT RECOVERED/NOT RESOLVED,N,N,N,N,N,N,N,TREATMENT,2013-04-12,,68,,ONGOING,2013-08-06
CDISCPILOT01,AE,CDISC005,5,7,CHEST DISCOMFORT,,,CHEST DISCOMFORT,,,,,,,,,,,MILD,N,DOSE NOT CHANGED,NOT RELATED,RECOVERED/RESOLVED,N,N,N,N,N,N,N,TREATMENT,2013-06-24,2013-06-24,141,141,,
CDISCPILOT01,AE,CDISC005,6,8,HEADACHE,,,HEADACHE,,,,,,,,,,,MILD,N,DOSE NOT CHANGED,NOT RELATED,RECOVERED/RESOLVED,N,N,N,N,N,N,N,TREATMENT,2013-06-24,2013-06-24,141,141,,
CDISCPILOT01,AE,CDISC005,7,9,COUGH,,,COUGH,,,,,,,,,,,MODERATE,N,DOSE NOT CHANGED,NOT RELATED,RECOVERED/RESOLVED,N,N,N,N,N,N,N,TREATMENT,2013-07-17,2013-07-26,164,173,,
CDISCPILOT01,AE,CDISC013,1,1,MYOCARDIAL INFARCTION,,,MYOCARDIAL INFARCTION,,,,,,,,,,,SEVERE,Y,DRUG WITHDRAWN,POSSIBLY RELATED,FATAL,N,N,N,Y,Y,Y,N,TREATMENT,2013-08-02,2013-08-02,12,12,,
CDISCPILOT01,AE,CDISC016,1,1,PARAESTHESIA ORAL,,,PARAESTHESIA ORAL,,,,,,,,,,,MILD,N,DOSE NOT CHANGED,POSSIBLY RELATED,NOT RECOVERED/NOT RESOLVED,N,N,N,N,N,N,N,TREATMENT,2013-04-11,,9,,ONGOING,2013-09-22
CDISCPILOT01,AE,CDISC016,2,2,NASOPHARYNGITIS,,,NASOPHARYNGITIS,,,,,,AESI,,,,,SEVERE,N,DOSE NOT CHANGED,NOT RELATED,RECOVERED/RESOLVED,N,N,N,N,N,N,N,TREATMENT,2013-04-28,2013-05-11,26,39,,
CDISCPILOT01,AE,CDISC016,3,3,SUPRAVENTRICULAR EXTRASYSTOLES,,,SUPRAVENTRICULAR EXTRASYSTOLES,,,,,,,,,,,MILD,N,DOSE NOT CHANGED,POSSIBLY RELATED,RECOVERED/RESOLVED,N,N,N,N,N,N,N,TREATMENT,2013-04-29,2013-05-15,27,43,,
CDISCPILOT01,AE,CDISC016,4,4,RASH PRURITIC,,,RASH PRURITIC,,,,,,AESI,,,,,MODERATE,N,DOSE NOT CHANGED,RELATED,RECOVERED/RESOLVED,N,N,N,N,N,N,N,TREATMENT,2013-05-27,2013-05-31,55,59,,
CDISCPILOT01,AE,CDISC016,5,5,VENTRICULAR EXTRASYSTOLES,,,VENTRICULAR EXTRASYSTOLES,,,,,,,,,,,MODERATE,N,DOSE NOT CHANGED,RELATED,RECOVERED/RESOLVED,N,N,N,N,N,N,N,TREATMENT,2013-05-28,2013-06-01,56,60,,
CDISCPILOT01,AE,CDISC016,6,6,CONJUNCTIVAL HAEMORRHAGE,,,CONJUNCTIVAL HAEMORRHAGE,,,,,,RASH PRURITIC,,,,,MODERATE,N,DRUG WITHDRAWN,UNLIKELY RELATED,NOT RECOVERED/NOT RESOLVED,N,N,N,N,N,N,N,TREATMENT,2013-05-30,,58,,ONGOING,2013-09-22
CDISCPILOT01,AE,CDISC016,7,7,CERUMEN IMPACTION,,,CERUMEN IMPACTION,,,,,,,,,,,MILD,N,DOSE NOT CHANGED,NOT RELATED,NOT RECOVERED/NOT RESOLVED,N,N,N,N,N,N,N,TREATMENT,2013-06-01,,60,,ONGOING,2013-09-22
