dataset,variable,label,type,length
ae.xpt,STUDYID,Study Identifier,Char,12
ae.xpt,DOMAIN,Domain Abbreviation,Char,2
ae.xpt,USUBJID,Unique Subject Identifier,Char,8
ae.xpt,AETERM,Reported Term for the Adverse Event,Char,40
ae.xpt,AEOUT,Outcome of Adverse Event,Char,40
ae.xpt,AEENDTC,End Date/Time of Adverse Event,Char,19
ae.xpt,AEDUR,Duration of Adverse Event,Char,19
