STUDYID,DOMAIN,USUBJID,SUBJID,RFSTDTC,RFENDTC,RFXSTDTC,RFXENDTC,RFICDTC,RFPENDTC,DTHDTC,DTHFL,SITEID,BRTHDTC,AGE,AGETXT,AGEU,SEX,RACE,ETHNIC,ARMCD,ARM,ACTARMCD,ACTARM,ARMNRS,COUNTRY
ABC,DM,ABC123,036000100002,2018-04-17T09:25,2019-03-13,2018-04-17T09:25,2019-03-13,2018-03-22,2019-09-29,2019-09-29,Y,0360001,1941-07-03,76,,YEARS,M,WHITE,HISPANIC OR LATINO,IKD,Ikd,IKD,Ikd,,BRA
ABC,DM,ABC456,036000100003,2018-04-18T09:30,2018-07-18T11:15,2018-04-18T09:30,2018-07-18T11:15,2018-03-22,2022-01-19,,,0360001,1964-10-28,53,,YEARS,F,WHITE,NOT HISPANIC OR LATINO,IKD,Ikd,IKD,Ikd,,GRC
ABC,DM,XXX100,840000300004,,,,,2018-12-20,2019-01-10,,Y,8400003,1948-06-15,70,,YEARS,M,BLACK OR AFRICAN AMERICAN,NOT HISPANIC OR LATINO,,,,,SCREEN FAILURE,USA
ABC,DM,XXX200,076000300008,,,,,2018-04-23,2018-06-27,2018-06-27,Y,0760003,1960-06-25,57,,YEARS,M,WHITE,NOT HISPANIC OR LATINO,PLACEBO,Placebo,,,"ASSIGNED, NOT TREATED",BRA
ABC,DM,XXX300,080000300009,,,,,2018-04-23,2018-06-27,2018-06-27,Y,0800003,1960-06-25,57,,YEARS,F,WHITE,NOT HISPANIC OR LATINO,,,,,NOT ASSIGNED,USA
ABC,DM,SSS900,090000100009,2018-04-18T09:30,2018-07-18T11:15,2018-04-18T09:30,2018-07-18T11:15,2018-03-22,2022-01-19,,,0360001,1964-10-28,54,,YEARS,F,WHITE,NOT HISPANIC OR LATINO,IKD,Ikd,SSS,Sss,UNPLANNED TREATMENT,GRC
