STUDYID,USUBJID,SUBJID,SITEID,AESEQ,SRCDOM,SRCSEQ,ASEQ,AETERM,AEDECOD,AELLTCD,AEPTCD,AEHLT,--HLTCD,--HLGT,--HLGTCD,--SOC,--SOCCD,CMTRT,CMDECOD,CMCLAS,CMCLASCD,ATCy,ATCyCD,--CAT,--SCAT,ACATy,AESTDTC,ASTDT,ASTTM,ASTDTM,ASTDTF,ASTTMF,AEENDTC,AENDT,AENTM,AENDTM,AENDTF,AENTMF,ASTDY,AESTDY,AENDY,ADURN,ADURU,AEDUR,APERIOD,APERIODC,APHASE,AEOCCUR,AEPRESP,ANL01FL,TRTEMFL,TREM01FL,FUPFL,AESEV,AESEVN,ANL01FL,ANL01FN,ANL99FL,ANL99FN,ONTRTFL,ONTRTFN,LVOTFL,LVOTFN,AETOXGR,AETOXGRN,DOSEON,DOSCUMA,DOSEU,DOSCUMG1
ABCD,101-002,,,,,,,,,,,,,,,,,,,,,,,,,,,,,,,,,,,,,,,,,25,Days,,,,,,,,,,,,,,,,,,,,,3,3,247.06,247.06,mg,1st Quartile
ABCD,101-003,,,,,,,,,,,,,,,,,,,,,,,,,,,,,,,,,,,,,,,,,,Days,,,,,,,,,,,,,,,,,,,,,2,2,674.02,674.02,mg,3rd Quartile
ABCD,101-005,,,,,,,,,,,,,,,,,,,,,,,,,,,,,,,,,,,,,,,,,,,,,,,,,,,,,,,,,,,,,,,1,1,0,0,mg,
ABCD,101-006,,,,,,,,,,,,,,,,,,,,,,,,,,,,,,,,,,,,,,,,,,,,,,,,,,,,,,,,,,,,,,,2,2,900,900,mg,4th Quartile
ABCD,101-008,,,,,,,,,,,,,,,,,,,,,,,,,,,,,,,,,,,,,,,,,,,,,,,,,,,,,,,,,,,,,,,4,4,493.3,493.3,mg,2nd Quartile
ABCD,101-010,,,,,,,,,,,,,,,,,,,,,,,,,,,,,,,,,,,,,,,,,,,,,,,,,,,,,,,,,,,,,,,3,3,894.29,894.29,mg,4th Quartile
ABCD,101-012,,,,,,,,,,,,,,,,,,,,,,,,,,,,,,,,,,,,,,,,,,,,,,,,,,,,,,,,,,,,,,,1,1,0,0,mg,
