{
  "rule": {
    "Check": {
      "all": [
        {
          "name": "--CAT",
          "operator": "equal_to_case_insensitive",
          "value": "$domain_label"
        }
      ]
    },
    "Operations": [
      {
        "id": "$domain_label",
        "operator": "domain_label"
      }
    ],
    "Core": {
      "Id": "CDISC.SDTMIG.CG0336",
      "Version": "1",
      "Status": "Draft"
    },
    "Description": "Raise an error when --CAT = DOMAIN.",
    "Outcome": {
      "Message": "--CAT is equal to DOMAIN.",
      "Output_Variables": [
        "--CAT"
      ]
    },
    "Sensitivity": "Record",
    "Executability": "Fully Executable",
    "Authorities": [
      {
        "Organization": "CDISC",
        "Standards": [
          {
            "Name": "SDTMIG",
            "Version": "3.4",
            "References": [
              {
                "Origin": "SDTM and SDTMIG Conformance Rules",
                "Version": "2.0",
                "Citations": [
                  {
                    "Document": "IG v3.4",
                    "Section": "4.2.6",
                    "Cited_Guidance": "Values for --CAT and --SCAT should not be redundant with the domain name or dictionary classification provided by --DECOD and --BODSYS."
                  }
                ],
                "Rule_Identifier": {
                  "Id": "CG0336",
                  "Version": "1"
                }
              }
            ]
          },
          {
            "Name": "SDTMIG",
            "Version": "3.3",
            "References": [
              {
                "Origin": "SDTM and SDTMIG Conformance Rules",
                "Version": "2.0",
                "Citations": [
                  {
                    "Document": "IG v3.3",
                    "Section": "4.2.6",
                    "Cited_Guidance": "Values for --CAT and --SCAT should not be redundant with the domain name or dictionary classification provided by --DECOD and --BODSYS."
                  }
                ],
                "Rule_Identifier": {
                  "Id": "CG0336",
                  "Version": "1"
                }
              }
            ]
          },
          {
            "Name": "SDTMIG",
            "Version": "3.2",
            "References": [
              {
                "Origin": "SDTM and SDTMIG Conformance Rules",
                "Version": "2.0",
                "Citations": [
                  {
                    "Document": "IG v3.2",
                    "Section": "4.1.2.6",
                    "Cited_Guidance": "Values for --CAT and --SCAT should not be redundant with the domain name or dictionary classification provided by --DECOD and --BODSYS."
                  }
                ],
                "Rule_Identifier": {
                  "Id": "CG0336",
                  "Version": "1"
                }
              }
            ]
          }
        ]
      }
    ],
    "Scope": {
      "Classes": {
        "Include": [
          "ALL"
        ]
      },
      "Domains": {
        "Include": [
          "ALL"
        ]
      }
    },
    "Rule_Type": "Record Data"
  },
  "datasets": [
    {
      "filename": "lb.xpt",
      "label": "Laboratory Test Results",
      "domain": "LB",
      "variables": [
        {
          "name": "STUDYID",
          "label": "Study Identifier",
          "type": "Char",
          "length": 12
        },
        {
          "name": "DOMAIN",
          "label": "Domain Abbreviation",
          "type": "Char",
          "length": 2
        },
        {
          "name": "USUBJID",
          "label": "Unique Subject Identifier",
          "type": "Char",
          "length": 8
        },
        {
          "name": "LBSEQ",
          "label": "Sequence Number",
          "type": "Num",
          "length": 8
        },
        {
          "name": "LBTESTCD",
          "label": "Lab Test or Examination Short Name",
          "type": "Char",
          "length": 7
        },
        {
          "name": "LBTEST",
          "label": "Lab Test or Examination Name",
          "type": "Char",
          "length": 39
        },
        {
          "name": "LBCAT",
          "label": "Category for Lab Test",
          "type": "Char",
          "length": 10
        },
        {
          "name": "LBORRES",
          "label": "Result or Finding in Original Units",
          "type": "Char",
          "length": 6
        },
        {
          "name": "LBORRESU",
          "label": "Original Units",
          "type": "Char",
          "length": 7
        },
        {
          "name": "LBORNRLO",
          "label": "Reference Range Lower Limit in Orig Unit",
          "type": "Char",
          "length": 200
        },
        {
          "name": "LBORNRHI",
          "label": "Reference Range Upper Limit in Orig Unit",
          "type": "Char",
          "length": 200
        },
        {
          "name": "LBSTRESC",
          "label": "Character Result/Finding in Std Format",
          "type": "Char",
          "length": 8
        },
        {
          "name": "LBSTRESN",
          "label": "Numeric Result/Finding in Standard Units",
          "type": "Num",
          "length": 8
        },
        {
          "name": "LBSTRESU",
          "label": "Standard Units",
          "type": "Char",
          "length": 7
        },
        {
          "name": "LBSTNRLO",
          "label": "Reference Range Lower Limit-Std Units",
          "type": "Num",
          "length": 8
        },
        {
          "name": "LBSTNRHI",
          "label": "Reference Range Upper Limit-Std Units",
          "type": "Num",
          "length": 8
        },
        {
          "name": "LBNRIND",
          "label": "Reference Range Indicator",
          "type": "Char",
          "length": 8
        },
        {
          "name": "LBLOBXFL",
          "label": "Last Observation Before Exposure Flag",
          "type": "Char",
          "length": 1
        },
        {
          "name": "VISITNUM",
          "label": "Visit Number",
          "type": "Num",
          "length": 8
        },
        {
          "name": "VISIT",
          "label": "Visit Name",
          "type": "Char",
          "length": 200
        },
        {
          "name": "EPOCH",
          "label": "Epoch",
          "type": "Char",
          "length": 9
        },
        {
          "name": "LBDTC",
          "label": "Date/Time of Specimen Collection",
          "type": "Char",
          "length": 19
        },
        {
          "name": "LBDY",
          "label": "Study Day of Specimen Collection",
          "type": "Num",
          "length": 8
        }
      ],
      "records": {
        "STUDYID": [
          "CDISCPILOT01",
          "CDISCPILOT01",
          "CDISCPILOT01",
          "CDISCPILOT01",
          "CDISCPILOT01",
          "CDISCPILOT01",
          "CDISCPILOT01",
          "CDISCPILOT01",
          "CDISCPILOT01",
          "CDISCPILOT01"
        ],
        "DOMAIN": [
          "LB",
          "LB",
          "LB",
          "LB",
          "LB",
          "LB",
          "LB",
          "LB",
          "LB",
          "LB"
        ],
        "USUBJID": [
          "CDISC002",
          "CDISC002",
          "CDISC002",
          "CDISC002",
          "CDISC002",
          "CDISC002",
          "CDISC002",
          "CDISC002",
          "CDISC002",
          "CDISC002"
        ],
        "LBSEQ": [
          70,
          71,
          72,
          73,
          74,
          75,
          76,
          77,
          78,
          79
        ],
        "LBTESTCD": [
          "URATE",
          "UROBIL",
          "WBC",
          "ALB",
          "ALP",
          "ALT",
          "AST",
          "BASO",
          "BILI",
          "UREAN"
        ],
        "LBTEST": [
          "Urate",
          "Urobilinogen",
          "Leukocytes",
          "Albumin",
          "Alkaline Phosphatase",
          "Alanine Aminotransferase",
          "Aspartate Aminotransferase",
          "Basophils",
          "Bilirubin",
          "Urea Nitrogen"
        ],
        "LBCAT": [
          "CHEMISTRY",
          "URINALYSIS",
          "Laboratory Results",
          "CHEMISTRY",
          "CHEMISTRY",
          "LB",
          "CHEMISTRY",
          "HEMATOLOGY",
          "CHEMISTRY",
          "CHEMISTRY"
        ],
        "LBORRES": [
          "5.0",
          "0",
          "8.17",
          "3.6",
          "136",
          "14",
          "15",
          "0.04",
          "0.9",
          "21"
        ],
        "LBORRESU": [
          "mg/dL",
          "",
          "10^9/L",
          "g/dL",
          "U/L",
          "U/L",
          "U/L",
          "10^9/L",
          "mg/dL",
          "mg/dL"
        ],
        "LBORNRLO": [
          "2.5",
          "",
          "3.8",
          "3.5",
          "35",
          "6",
          "9",
          "0",
          "0.2",
          "4"
        ],
        "LBORNRHI": [
          "7.5",
          "",
          "10.7",
          "4.6",
          "115",
          "32",
          "34",
          "0.2",
          "1.2",
          "24"
        ],
        "LBSTRESC": [
          "297.4",
          "0",
          "8.17",
          "36",
          "136",
          "14",
          "15",
          "0.04",
          "15.39",
          "7.497"
        ],
        "LBSTRESN": [
          297.4,
          0,
          8.17,
          36,
          136,
          14,
          15,
          0.03999999999999999,
          15.39,
          7.497
        ],
        "LBSTRESU": [
          "umol/L",
          "",
          "10^9/L",
          "g/L",
          "U/L",
          "U/L",
          "U/L",
          "10^9/L",
          "umol/L",
          "mmol/L"
        ],
        "LBSTNRLO": [
          149,
          null,
          3.8,
          35,
          35,
          6,
          9,
          0,
          3,
          1.4
        ],
        "LBSTNRHI": [
          446,
          null,
          10.7,
          46,
          115,
          32,
          34,
          0.2,
          21,
          8.6
        ],
        "LBNRIND": [
          "NORMAL",
          "NORMAL",
          "NORMAL",
          "NORMAL",
          "HIGH",
          "NORMAL",
          "NORMAL",
          "NORMAL",
          "NORMAL",
          "NORMAL"
        ],
        "LBLOBXFL": [
          "",
          "",
          "",
          "",
          "",
          "",
          "",
          "",
          "",
          ""
        ],
        "VISITNUM": [
          4,
          4,
          4,
          5,
          5,
          5,
          5,
          5,
          5,
          5
        ],
        "VISIT": [
          "WEEK 2",
          "WEEK 2",
          "WEEK 2",
          "WEEK 4",
          "WEEK 4",
          "WEEK 4",
          "WEEK 4",
          "WEEK 4",
          "WEEK 4",
          "WEEK 4"
        ],
        "EPOCH": [
          "TREATMENT",
          "TREATMENT",
          "TREATMENT",
          "TREATMENT",
          "TREATMENT",
          "TREATMENT",
          "TREATMENT",
          "TREATMENT",
          "TREATMENT",
          "TREATMENT"
        ],
        "LBDTC": [
          "2012-11-28T10:00",
          "2012-11-28T10:00",
          "2012-11-28T10:00",
          "2012-12-11T12:16",
          "2012-12-11T12:16",
          "2012-12-11T12:16",
          "2012-12-11T12:16",
          "2012-12-11T12:16",
          "2012-12-11T12:16",
          "2012-12-11T12:16"
        ],
        "LBDY": [
          14,
          14,
          14,
          27,
          27,
          27,
          27,
          27,
          27,
          27
        ]
      }
    }
  ],
  "standard": {
    "product": "sdtmig",
    "version": "3-2"
  },
  "codelists": []
}