STUDYID,DOMAIN,USUBJID,SUBJID,RFSTDTC,RFENDTC,RFXSTDTC,RFXENDTC,RFICDTC,RFPENDTC,SITEID,INVNAM,BRTHDTC,AGE,AGEU,SEX,RACE,ETHNIC,ARMCD,ARM,ACTARMCD,ACTARM,ARMNRS,ACTARMUD,COUNTRY
ABC123,DM,ABC12301001,1001,2006-01-12 00:00:00,2006-03-10 00:00:00,2006-01-12 00:00:00,2006-03-10 00:00:00,2006-01-03 00:00:00,2006-04-01 00:00:00,1,"JOHNSON, M",17880,57,YEARS,M,WHITE,HISPANIC OR LATINO,A,Drug A,A,Drug A,,,
ABC123,DM,ABC12301002,1002,2006-01-15 00:00:00,2006-02-28 00:00:00,2006-01-15 00:00:00,2006-02-28 00:00:00,2006-01-04 00:00:00,2006-03-26 00:00:00,1,"JOHNSON, M",20170,50,YEARS,M,WHITE,NOT HISPANIC OR LATINO,P,Placebo,P,Placebo,,,
ABC123,DM,ABC12301003,1003,2006-01-16 00:00:00,2006-03-19 00:00:00,2006-01-16 00:00:00,2006-03-19 00:00:00,2006-01-02 00:00:00,2006-03-19 00:00:00,1,"JOHNSON, M",13899,68,YEARS,F,BLACK OR AFRICAN AMERICAN,NOT HISPANIC OR LATINO,P,Placebo,P,Placebo,,,
ABC123,DM,ABC12301004,1004,,,,,2006-01-07 00:00:00,2006-01-08 00:00:00,1,"JOHNSON, M",15159,,,M,ASIAN,NOT HISPANIC OR LATINO,,,,,SCREEN FAILURE,,
ABC123,DM,ABC12302001,2001,2006-02-02 00:00:00,2006-03-31 00:00:00,2006-02-02 00:00:00,2006-03-31 00:00:00,2006-01-15 00:00:00,2006-04-12 00:00:00,2,"GONZALEZ, E",18437,55,YEARS,F,AMERICAN INDIAN OR ALASKA NATIVE,NOT HISPANIC OR LATINO,P,Placebo,P,Placebo,,,
ABC123,DM,ABC12302002,2002,2006-02-03 00:00:00,2006-04-05 00:00:00,2006-02-03 00:00:00,2006-04-05 00:00:00,2006-01-10 00:00:00,2006-04-25 00:00:00,2,"GONZALEZ, E",20580,49,YEARS,F,NATIVE HAWAIIAN OR OTHER PACIFIC ISLANDERS,NOT HISPANIC OR LATINO,A,Drug A,A,Drug A,,,
