[
  {
    "filename": "sv.xpt",
    "domain": "SV",
    "variables": [
      {
        "name": "STUDYID",
        "label": "Study Identifier",
        "type": "Char",
        "length": 10
      },
      {
        "name": "DOMAIN",
        "label": "Domain Abbreviation",
        "type": "Char",
        "length": 2
      },
      {
        "name": "USUBJID",
        "label": "Unique Subject Identifier",
        "type": "Char",
        "length": 14
      },
      {
        "name": "VISITNUM",
        "label": "Visit Number",
        "type": "Num",
        "length": 8
      },
      {
        "name": "VISIT",
        "label": "Visit Name",
        "type": "Char",
        "length": 18
      },
      {
        "name": "SVPRESP",
        "label": "Pre-specified",
        "type": "Char",
        "length": 1
      },
      {
        "name": "SVOCCUR",
        "label": "Occurrence",
        "type": "Char",
        "length": 1
      },
      {
        "name": "VISITDY",
        "label": "Planned Study Day of Visit",
        "type": "Num",
        "length": 8
      },
      {
        "name": "EPOCH",
        "label": "Epoch",
        "type": "Char",
        "length": 9
      },
      {
        "name": "SVSTDTC",
        "label": "Start Date/Time of Visit",
        "type": "Char",
        "length": 10
      },
      {
        "name": "SVENDTC",
        "label": "End Date/Time of Visit",
        "type": "Char",
        "length": 1
      },
      {
        "name": "SVSTDY",
        "label": "Study Day of Start of Visit",
        "type": "Num",
        "length": 8
      }
    ],
    "records": {
      "STUDYID": [
        "CDISC-TEST",
        "CDISC-TEST",
        "CDISC-TEST",
        "CDISC-TEST",
        "CDISC-TEST",
        "CDISC-TEST",
        "CDISC-TEST",
        "CDISC-TEST",
        "CDISC-TEST",
        "CDISC-TEST",
        "CDISC-TEST",
        "CDISC-TEST",
        "CDISC-TEST",
        "CDISC-TEST",
        "CDISC-TEST",
        "CDISC-TEST",
        "CDISC-TEST",
        "CDISC-TEST",
        "CDISC-TEST",
        "CDISC-TEST",
        "CDISC-TEST",
        "CDISC-TEST",
        "CDISC-TEST",
        "CDISC-TEST",
        "CDISC-TEST",
        "CDISC-TEST",
        "CDISC-TEST",
        "CDISC-TEST",
        "CDISC-TEST",
        "CDISC-TEST",
        "CDISC-TEST",
        "CDISC-TEST",
        "CDISC-TEST",
        "CDISC-TEST",
        "CDISC-TEST",
        "CDISC-TEST",
        "CDISC-TEST",
        "CDISC-TEST",
        "CDISC-TEST",
        "CDISC-TEST",
        "CDISC-TEST",
        "CDISC-TEST",
        "CDISC-TEST",
        "CDISC-TEST",
        "CDISC-TEST",
        "CDISC-TEST",
        "CDISC-TEST",
        "CDISC-TEST",
        "CDISC-TEST",
        "CDISC-TEST",
        "CDISC-TEST",
        "CDISC-TEST",
        "CDISC-TEST",
        "CDISC-TEST",
        "CDISC-TEST",
        "CDISC-TEST",
        "CDISC-TEST",
        "CDISC-TEST",
        "CDISC-TEST",
        "CDISC-TEST"
      ],
      "DOMAIN": [
        "SV",
        "SV",
        "SV",
        "SV",
        "SV",
        "SV",
        "SV",
        "SV",
        "SV",
        "SV",
        "SV",
        "SV",
        "SV",
        "SV",
        "SV",
        "SV",
        "SV",
        "SV",
        "SV",
        "SV",
        "SV",
        "SV",
        "SV",
        "SV",
        "SV",
        "SV",
        "SV",
        "SV",
        "SV",
        "SV",
        "SV",
        "SV",
        "SV",
        "SV",
        "SV",
        "SV",
        "SV",
        "SV",
        "SV",
        "SV",
        "SV",
        "SV",
        "SV",
        "SV",
        "SV",
        "SV",
        "SV",
        "SV",
        "SV",
        "SV",
        "SV",
        "SV",
        "SV",
        "SV",
        "SV",
        "SV",
        "SV",
        "SV",
        "SV",
        "SV"
      ],
      "USUBJID": [
        "CDISC-TEST-001",
        "CDISC-TEST-001",
        "CDISC-TEST-001",
        "CDISC-TEST-001",
        "CDISC-TEST-001",
        "CDISC-TEST-001",
        "CDISC-TEST-001",
        "CDISC-TEST-001",
        "CDISC-TEST-001",
        "CDISC-TEST-001",
        "CDISC-TEST-001",
        "CDISC-TEST-001",
        "CDISC-TEST-001",
        "CDISC-TEST-001",
        "CDISC-TEST-001",
        "CDISC-TEST-001",
        "CDISC-TEST-001",
        "CDISC-TEST-001",
        "CDISC-TEST-001",
        "CDISC-TEST-001",
        "CDISC-TEST-001",
        "CDISC-TEST-001",
        "CDISC-TEST-001",
        "CDISC-TEST-001",
        "CDISC-TEST-001",
        "CDISC-TEST-001",
        "CDISC-TEST-001",
        "CDISC-TEST-001",
        "CDISC-TEST-001",
        "CDISC-TEST-001",
        "CDISC-TEST-002",
        "CDISC-TEST-002",
        "CDISC-TEST-002",
        "CDISC-TEST-002",
        "CDISC-TEST-002",
        "CDISC-TEST-002",
        "CDISC-TEST-002",
        "CDISC-TEST-002",
        "CDISC-TEST-002",
        "CDISC-TEST-002",
        "CDISC-TEST-002",
        "CDISC-TEST-002",
        "CDISC-TEST-002",
        "CDISC-TEST-002",
        "CDISC-TEST-002",
        "CDISC-TEST-002",
        "CDISC-TEST-002",
        "CDISC-TEST-002",
        "CDISC-TEST-002",
        "CDISC-TEST-002",
        "CDISC-TEST-002",
        "CDISC-TEST-002",
        "CDISC-TEST-002",
        "CDISC-TEST-002",
        "CDISC-TEST-002",
        "CDISC-TEST-002",
        "CDISC-TEST-002",
        "CDISC-TEST-002",
        "CDISC-TEST-002",
        "CDISC-TEST-002"
      ],
      "VISITNUM": [
        100,
        200,
        300,
        400,
        500,
        600,
        700,
        800,
        900,
        1000,
        1100,
        1200,
        1300,
        1400,
        1500,
        1600,
        1700,
        1800,
        1900,
        2000,
        2100,
        2200,
        2300,
        2400,
        2500,
        2600,
        2700,
        2800,
        2800.1,
        2900,
        100,
        200,
        300,
        400,
        500,
        600,
        700,
        800,
        900,
        1000,
        1100,
        1200,
        1300,
        1400,
        1500,
        1600,
        1700,
        1800,
        1900,
        2000,
        2100,
        2200,
        2300,
        2400,
        2500,
        2600,
        2700,
        2800,
        2800.1,
        2900
      ],
      "VISIT": [
        "VISIT 1 (WEEK -2)",
        "VISIT 2 (WEEK 0)",
        "VISIT 3 (WEEK 1)",
        "VISIT 4 (WEEK 2)",
        "VISIT 5 (WEEK 3)",
        "VISIT 6 (WEEK 4)",
        "VISIT 7 (WEEK 5)",
        "VISIT 8 (WEEK 6)",
        "VISIT 9 (WEEK 7)",
        "VISIT 10 (WEEK 8)",
        "VISIT 11 (WEEK 9)",
        "VISIT 12 (WEEK 10)",
        "VISIT 13 (WEEK 11)",
        "VISIT 14 (WEEK 12)",
        "VISIT 15 (WEEK 13)",
        "VISIT 16 (WEEK 14)",
        "VISIT 17 (WEEK 15)",
        "VISIT 18 (WEEK 16)",
        "VISIT 19 (WEEK 17)",
        "VISIT 20 (WEEK 18)",
        "VISIT 21 (WEEK 19)",
        "VISIT 22 (WEEK 20)",
        "VISIT 23 (WEEK 21)",
        "VISIT 24 (WEEK 22)",
        "VISIT 25 (WEEK 23)",
        "VISIT 26 (WEEK 24)",
        "VISIT 27 (WEEK 25)",
        "VISIT 28 (WEEK 26)",
        "",
        "END OF TRIAL",
        "VISIT 1 (WEEK -2)",
        "VISIT 2 (WEEK 0)",
        "VISIT 3 (WEEK 1)",
        "VISIT 4 (WEEK 2)",
        "VISIT 5 (WEEK 3)",
        "VISIT 6 (WEEK 4)",
        "VISIT 7 (WEEK 5)",
        "VISIT 8 (WEEK 6)",
        "VISIT 9 (WEEK 7)",
        "VISIT 10 (WEEK 8)",
        "VISIT 11 (WEEK 9)",
        "VISIT 12 (WEEK 10)",
        "VISIT 13 (WEEK 11)",
        "VISIT 14 (WEEK 12)",
        "VISIT 15 (WEEK 13)",
        "VISIT 16 (WEEK 14)",
        "VISIT 17 (WEEK 15)",
        "VISIT 18 (WEEK 16)",
        "VISIT 19 (WEEK 17)",
        "VISIT 20 (WEEK 18)",
        "VISIT 21 (WEEK 19)",
        "VISIT 22 (WEEK 20)",
        "VISIT 23 (WEEK 21)",
        "VISIT 24 (WEEK 22)",
        "VISIT 25 (WEEK 23)",
        "VISIT 26 (WEEK 24)",
        "VISIT 27 (WEEK 25)",
        "VISIT 28 (WEEK 26)",
        "",
        "END OF TRIAL"
      ],
      "SVPRESP": [
        "Y",
        "Y",
        "Y",
        "Y",
        "Y",
        "Y",
        "Y",
        "Y",
        "Y",
        "Y",
        "Y",
        "Y",
        "Y",
        "Y",
        "Y",
        "Y",
        "Y",
        "Y",
        "Y",
        "Y",
        "Y",
        "Y",
        "Y",
        "Y",
        "Y",
        "Y",
        "Y",
        "Y",
        "",
        "Y",
        "Y",
        "Y",
        "Y",
        "Y",
        "Y",
        "Y",
        "Y",
        "Y",
        "Y",
        "Y",
        "Y",
        "Y",
        "Y",
        "Y",
        "Y",
        "Y",
        "Y",
        "Y",
        "Y",
        "Y",
        "Y",
        "Y",
        "Y",
        "Y",
        "Y",
        "Y",
        "Y",
        "Y",
        "",
        "Y"
      ],
      "SVOCCUR": [
        "Y",
        "Y",
        "Y",
        "Y",
        "Y",
        "Y",
        "Y",
        "Y",
        "Y",
        "Y",
        "Y",
        "Y",
        "Y",
        "Y",
        "Y",
        "Y",
        "Y",
        "Y",
        "Y",
        "Y",
        "Y",
        "Y",
        "Y",
        "Y",
        "Y",
        "Y",
        "Y",
        "N",
        "Y",
        "Y",
        "Y",
        "Y",
        "Y",
        "Y",
        "Y",
        "Y",
        "Y",
        "Y",
        "Y",
        "Y",
        "Y",
        "Y",
        "Y",
        "Y",
        "Y",
        "Y",
        "Y",
        "Y",
        "Y",
        "Y",
        "Y",
        "Y",
        "Y",
        "Y",
        "Y",
        "Y",
        "Y",
        "Y",
        "",
        "Y"
      ],
      "VISITDY": [
        -15,
        1,
        8,
        15,
        22,
        29,
        36,
        43,
        50,
        57,
        64,
        71,
        78,
        85,
        92,
        99,
        106,
        113,
        120,
        127,
        134,
        141,
        148,
        155,
        162,
        169,
        176,
        183,
        184,
        213,
        -15,
        1,
        8,
        15,
        22,
        29,
        36,
        43,
        50,
        57,
        64,
        71,
        78,
        85,
        92,
        99,
        106,
        113,
        120,
        127,
        134,
        141,
        148,
        155,
        162,
        169,
        176,
        183,
        184,
        213
      ],
      "EPOCH": [
        "SCREENING",
        "TREATMENT",
        "TREATMENT",
        "TREATMENT",
        "TREATMENT",
        "TREATMENT",
        "TREATMENT",
        "TREATMENT",
        "TREATMENT",
        "TREATMENT",
        "TREATMENT",
        "TREATMENT",
        "TREATMENT",
        "TREATMENT",
        "TREATMENT",
        "TREATMENT",
        "TREATMENT",
        "TREATMENT",
        "TREATMENT",
        "TREATMENT",
        "TREATMENT",
        "TREATMENT",
        "TREATMENT",
        "TREATMENT",
        "TREATMENT",
        "TREATMENT",
        "TREATMENT",
        "TREATMENT",
        "TREATMENT",
        "FOLLOW-UP",
        "SCREENING",
        "TREATMENT",
        "TREATMENT",
        "TREATMENT",
        "TREATMENT",
        "TREATMENT",
        "TREATMENT",
        "TREATMENT",
        "TREATMENT",
        "TREATMENT",
        "TREATMENT",
        "TREATMENT",
        "TREATMENT",
        "TREATMENT",
        "TREATMENT",
        "TREATMENT",
        "TREATMENT",
        "TREATMENT",
        "TREATMENT",
        "TREATMENT",
        "TREATMENT",
        "TREATMENT",
        "TREATMENT",
        "TREATMENT",
        "TREATMENT",
        "TREATMENT",
        "TREATMENT",
        "TREATMENT",
        "TREATMENT",
        "FOLLOW-UP"
      ],
      "SVSTDTC": [
        "2019-02-25",
        "2019-03-12",
        "2019-03-19",
        "2019-03-26",
        "2019-04-02",
        "2019-04-09",
        "2019-04-16",
        "2019-04-23",
        "2019-04-30",
        "2019-05-07",
        "2019-05-14",
        "2019-05-21",
        "2019-05-28",
        "2019-06-04",
        "2019-06-11",
        "2019-06-18",
        "2019-06-25",
        "2019-07-02",
        "2019-07-09",
        "2019-07-16",
        "2019-07-23",
        "2019-07-30",
        "2019-08-06",
        "2019-08-13",
        "2019-08-20",
        "2019-08-27",
        "2019-09-03",
        "2019-09-10",
        "2019-08-01",
        "2019-10-10",
        "2019-01-15",
        "2019-01-30",
        "2019-02-06",
        "2019-02-13",
        "2019-02-20",
        "2019-02-27",
        "2019-03-06",
        "2019-03-13",
        "2019-03-20",
        "2019-03-27",
        "2019-04-03",
        "2019-04-10",
        "2019-04-17",
        "2019-04-24",
        "2019-05-01",
        "2019-05-08",
        "2019-05-15",
        "2019-05-22",
        "2019-05-29",
        "2019-06-05",
        "2019-06-12",
        "2019-06-19",
        "2019-06-26",
        "2019-07-03",
        "2019-07-10",
        "2019-07-17",
        "2019-07-24",
        "2019-07-31",
        "2019-08-01",
        "2019-08-30"
      ],
      "SVENDTC": [
        "",
        "",
        "",
        "",
        "",
        "",
        "",
        "",
        "",
        "",
        "",
        "",
        "",
        "",
        "",
        "",
        "",
        "",
        "",
        "",
        "",
        "",
        "",
        "",
        "",
        "",
        "",
        "",
        "",
        "",
        "",
        "",
        "",
        "",
        "",
        "",
        "",
        "",
        "",
        "",
        "",
        "",
        "",
        "",
        "",
        "",
        "",
        "",
        "",
        "",
        "",
        "",
        "",
        "",
        "",
        "",
        "",
        "",
        "",
        ""
      ],
      "SVSTDY": [
        -14,
        1,
        8,
        15,
        22,
        29,
        36,
        43,
        50,
        57,
        64,
        71,
        78,
        85,
        92,
        99,
        106,
        113,
        120,
        127,
        134,
        141,
        148,
        155,
        162,
        169,
        176,
        183,
        184,
        213,
        -14,
        1,
        8,
        15,
        22,
        29,
        36,
        43,
        50,
        57,
        64,
        71,
        78,
        85,
        92,
        99,
        106,
        113,
        120,
        127,
        134,
        141,
        148,
        155,
        162,
        169,
        176,
        183,
        184,
        213
      ]
    }
  }
]