STUDYID,DOMAIN,USUBJID,VISITNUM,VISIT,VISITDY,EPOCH,SVSTDTC,SVSTDY,SVENDTC,SVENDY
CDISCPILOT01,SV,CDISC001,0,SCREENING,-21,SCREENING,2018-01-24,-27,2018-02-20,1
CDISCPILOT01,SV,CDISC001,110,CYCLE 1 DAY 1,1,SCREENING,2018-02-15T17:38,-5,2018-02-20T16:31:00,1
CDISCPILOT01,SV,CDISC001,120,CYCLE 1 DAY 2,2,TREATMENT,2018-02-21,2,2018-02-21T12:05,2
