STUDYID,DOMAIN,USUBJID,SUBJID,RFSTDTC,RFENDTC,AGETXT,AGEU,SEX,SPECIES,STRAIN,SBSTRAIN,ARMCD,ARM,SETCD
123,DM,ABC-101,101,38777,38823,8-9,WEEKS,M,RAT,FISCHER 344,Surgically ovariectomized,,1,A1
123,DM,ABC-102,102,38777,38823,8-9,WEEKS,M,RAT,FISCHER 344,Surgically ovariectomized,,1,A1
123,DM,ABC-103,103,38777,38823,8-9,WEEKS,M,RAT,ZUCKER,Zuker Diabetic Fatty; obese; Type 2 diabetic; ZDF.GmiCrl-fa/fa,,2,A2
