STUDYID,RDOMAIN,USUBJID,IDVAR,IDVARVAL,QNAM,QLABEL,QVAL,QORIG,QEVAL
CDISCPILOT01,EC,CDISC009,,122,ECREASOC,Reason for Occur Value,INVESTIGATOR DECISION,ASSIGNED,INVESTIGATOR
CDISCPILOT01,EC,CDISC009,,123,ECREASOC,Reason for Occur Value,INVESTIGATOR DECISION,COLLECTED,INVESTIGATOR
CDISCPILOT01,EC,CDISC009,,124,ECREASOC,Reason for Occur Value,INVESTIGATOR DECISION,COLLECTED,INVESTIGATOR
