STUDYID,DOMAIN,USUBJID,AESEQ,AETERM,AESEV,AESER,AEACN,AEREL,AEOUT,EPOCH,AESTDTC,AEENDTC,AESTDY,AEENDY,AEENRF
ABC123,AE,123101,1,HEADACHE,SEVERE,N,NOT APPLICABLE,DEFINITELY NOT RELATED,RECOVERED/RESOLVED,SCREENING,2005-10-12,2005-10-12,-1,-1,
ABC123,AE,123101,2,BACK PAIN,MODERATE,N,DOSE REDUCED,PROBABLY RELATED,RECOVERED/RESOLVED,TREATMENT,2005-10-13T13:05,2005-10-13T19:00,1,1,
ABC123,AE,123101,3,Flushing,MODERATE,Y,DOSE REDUCED,PROBABLY NOT RELATED,RECOVERING/RESOLVING,,2005-10-21,,9,,AFTER
