STUDYID,DOMAIN,USUBJID,EGSEQ,EGTESTCD,EGTEST,EGORRES,EGCAT,EGORRESU,EGSTRESC,EGSTRESN,EGSTRESU,EGSTAT,EGEVAL,EGDTC
1234,EG,123101,1,EGHRMN,ECG Mean Heart Rate,62,Measurement,beats/min,62,62,beats/min,,,2022-02-01T09:00:00
1234,EG,123101,2,PRAG,"PR Interval, Aggregate",0.15,MEASUREMENT,sec,150,0.15,msec,,,2022-02-01T09:00:00
1234,EG,123102,1,PRAG,"PR Interval, Aggregate",,,sec,,,msec,NOT DONE,,2022-02-01T09:00:00
1234,EG,123101,1,EGHRMN,ECG Mean Heart Rate,<62,,beats/min,62,,beats/min,,,2022-02-01T09:02:00
1234,EG,123101,2,INTP,Interpretation,,,,BRADYCARDIA,,,,Investigator,2022-02-01T10:02:00
