# Variable: --ENDY
# Condition: --ENDTC and DM.RFSTDTC both contain complete values in their date portion
# Rule: --ENDY is properly calculated per study day algorithm
Authorities:
- Organization: CDISC
  Standards:
  - Name: SDTMIG
    References:
    - Citations:
      - Cited Guidance: The permissible Study Day variables (--DY, --STDY, and --ENDY) describe the 
          relative day of the observation  starting with the reference date as Day 1. They are 
          determined by comparing the date portion of the  respective date/time variables (--DTC, 
          --STDTC, and --ENDTC) to the date portion of the Subject Reference  Start Date (RFSTDTC 
          from the Demographics domain). All Study Day values are integers. Thus, to calculate Study
          Day,  --DY = (date portion of --DTC) - (date portion of RFSTDTC) + 1 if --DTC is on or 
          after RFSTDTC,  --DY = (date portion of --DTC) - (date portion of RFSTDTC) if --DTC 
          precedes RFSTDTC.  This algorithm should be used across all domains.
        Document: IG v3.4
        Section: 4.4.4
      Origin: SDTM and SDTMIG Conformance Rules
      Rule Identifier:
        Id: CG0222
        Version: "1"
      Version: "2.0"
    Version: "3.4"
  - Name: SDTMIG
    References:
    - Citations:
      - Cited Guidance: "[The permissible Study Day variables (--DY, --STDY, and --ENDY) describe the
          relative day of the observation starting with the reference date as Day 1. They are determined
          by comparing the date portion of the respective date/time variables (--DTC, --STDTC, and --ENDTC)
          to the date portion of the Subject Reference Start Date (RFSTDTC from the Demographics domain).][All
          Study Day values are integers. Thus, to calculate Study Day: --DY = (date portion of --DTC)
          - (date portion of RFSTDTC) + 1 if --DTC is on or after RFSTDTC, --DY = (date portion of --DTC)
          - (date portion of RFSTDTC) if --DTC precedes RFSTDTC. This algorithm should be used across
          all domains.]"
        Document: IG v3.2
        Section: 4.1.4
      Origin: SDTM and SDTMIG Conformance Rules
      Rule Identifier:
        Id: CG0222
        Version: "1"
      Version: "2.0"
    Version: "3.2"
  - Name: SDTMIG
    References:
    - Citations:
      - Cited Guidance: "[The permissible Study Day variables (--DY, --STDY, and --ENDY) describe the
          relative day of the observation starting with the reference date as Day 1. They are determined
          by comparing the date portion of the respective date/time variables (--DTC, --STDTC, and --ENDTC)
          to the date portion of the Subject Reference Start Date (RFSTDTC from the Demographics domain).][All
          Study Day values are integers. Thus, to calculate Study Day: --DY = (date portion of --DTC)
          - (date portion of RFSTDTC) + 1 if --DTC is on or after RFSTDTC, --DY = (date portion of --DTC)
          - (date portion of RFSTDTC) if --DTC precedes RFSTDTC. This algorithm should be used across
          all domains.]"
        Document: IG v3.3
        Section: 4.4.4
      Origin: SDTM and SDTMIG Conformance Rules
      Rule Identifier:
        Id: CG0222
        Version: "1"
      Version: "2.0"
    Version: "3.3"
  - Name: TIG
    References:
    - Citations:
      - Cited Guidance: "The permissible Study Day variables (--DY, --STDY, and --ENDY) describe the relative
          day of the observation starting with the reference date as Day 1. They are determined by comparing
          the date portion of the respective date/time variables (--DTC, --STDTC, and --ENDTC) to the
          date portion of the Subject Reference Start Date (RFSTDTC from the Demographics domain).][All
          Study Day values are integers. Thus, to calculate Study Day; --DY = (date portion of --DTC)
          - (date portion of RFSTDTC) + 1 if --DTC is on or after RFSTDTC, --DY = (date portion of --DTC)
          - (date portion of RFSTDTC) if --DTC precedes RFSTDTC. This algorithm should be used across
          all domains."
        Document: TIG 1.0
        Item: Num 1
        Section: 2.8.7.6
      Origin: TIG Conformance Rules
      Rule Identifier:
        Id: TIG0436
        Version: "1"
      Version: "1.0"
    Substandard: SDTM
    Version: "1.0"
Check:
  all:
    #   - name: --ENDY
    #     operator: non_empty
  - name: --ENDTC
    operator: is_complete_date
  - name: RFSTDTC
    operator: is_complete_date
  - name: --ENDY   # checking failure criteria
    operator: not_equal_to
    value: $val_endy   # this is created in the operations statement that follows
Core:
  Id: CORE-000553
  Status: Published
  Version: "1"
Description: Raise an error when Study Day of End of Observation (--ENDY) is not correctly 
  calculated as per the study day algorithm as a non-zero integer value when the date portion of 
  --ENDTC is complete and the date portion of RFSTDTC is complete.
Executability: Fully Executable
Match Datasets:
- Keys:
  - USUBJID
  Name: DM
Operations:
- id: $val_endy
  name: --ENDTC
  operator: dy
Outcome:
  Message: --ENDY is not calculated correctly even though the date portion of --ENDTC is complete 
    and the date portion of RFSTDTC is complete.
  Output Variables:
  - --ENDY
  - --ENDTC
  - $val_endy
  - RFSTDTC
Rule Type: Record Data
Scope:
  Classes:
    Include:
    - ALL
  Domains:
    Exclude:
    - DM
  Use Case: INDH
Sensitivity: Record
