STUDYID,DOMAIN,USUBJID,LBSEQ,LBSPID,LBTESTCD,LBTEST,LBCAT,LBORRES,LBORRESU,LBORNRLO,LBORNRHI,LBSTRESC,LBSTRESN,LBSTRESU,LBSTNRLO,LBSTNRHI,LBNRIND,LBLOINC,LBSPEC,LBDRVFL,LBBLFL,EPOCH,VISITNUM,VISIT,LBDTC,LBDY
CDISC-TEST,LB,CDISC-TEST-001,1,46,ALB,Albumin,BIOCHEMISTRY,4.46,g/dL,,,4.46,4.46,g/dL,,,,1751-7,SERUM,,,SCREENING,100,VISIT 1 (WEEK -2),2019-02-25,-15
CDISC-TEST,LB,CDISC-TEST-001,2,37,ALB,Albumin,BIOCHEMISTRY,4.31,g/dL,,,4.31,4.31,g/dL,,,,1751-7,SERUM,Y,,TREATMENT,200,VISIT 2 (WEEK 0),2019-03-12,1
CDISC-TEST,LB,CDISC-TEST-001,3,21,ALB,Albumin,BIOCHEMISTRY,3.62,g/dL,,,3.62,3.62,g/dL,,,,1751-7,SERUM,,,TREATMENT,2200,VISIT 22 (WEEK 20),2019-07-30,141
CDISC-TEST,LB,CDISC-TEST-001,4,11,ALB,Albumin,BIOCHEMISTRY,4.17,g/dL,,,4.17,4.17,g/dL,,,,1751-7,SERUM,,,FOLLOW-UP,2900,END OF TRIAL,2019-10-10,213
CDISC-TEST,LB,CDISC-TEST-001,5,43,ALT,Alanine Aminotransferase,BIOCHEMISTRY,14.99,U/L,,,14.99,14.99,U/L,,,,1742-6,SERUM,,,SCREENING,100,VISIT 1 (WEEK -2),2019-02-25,-15
CDISC-TEST,LB,CDISC-TEST-001,6,34,ALT,Alanine Aminotransferase,BIOCHEMISTRY,38.09,U/L,,,38.09,38.09,U/L,,,,1742-6,SERUM,,,TREATMENT,200,VISIT 2 (WEEK 0),2019-03-12,1
CDISC-TEST,LB,CDISC-TEST-001,7,18,ALT,Alanine Aminotransferase,BIOCHEMISTRY,12.98,U/L,,,12.98,12.98,U/L,,,,1742-6,SERUM,,,TREATMENT,2200,VISIT 22 (WEEK 20),2019-07-30,141
CDISC-TEST,LB,CDISC-TEST-001,8,8,ALT,Alanine Aminotransferase,BIOCHEMISTRY,15.6,U/L,,,15.6,15.6,U/L,,,,1742-6,SERUM,,,FOLLOW-UP,2900,END OF TRIAL,2019-10-10,213
CDISC-TEST,LB,CDISC-TEST-001,9,39,CHOL,Cholesterol,LIPIDS,5.25,mmol/L,,,5.25,5.25,mmol/L,,,,2093-3,SERUM,,,SCREENING,100,VISIT 1 (WEEK -2),2019-02-25,-15
CDISC-TEST,LB,CDISC-TEST-001,10,30,CHOL,Cholesterol,LIPIDS,2.93,mmol/L,,,2.93,2.93,mmol/L,,,,2093-3,SERUM,,,TREATMENT,200,VISIT 2 (WEEK 0),2019-03-12,1
CDISC-TEST,LB,CDISC-TEST-001,11,14,CHOL,Cholesterol,LIPIDS,6.13,mmol/L,,,6.13,6.13,mmol/L,,,,2093-3,SERUM,,,TREATMENT,2200,VISIT 22 (WEEK 20),2019-07-30,141
CDISC-TEST,LB,CDISC-TEST-001,12,4,CHOL,Cholesterol,LIPIDS,2.32,mmol/L,,,2.32,2.32,mmol/L,,,,2093-3,SERUM,,,FOLLOW-UP,2900,END OF TRIAL,2019-10-10,213
CDISC-TEST,LB,CDISC-TEST-001,13,38,CREAT,Creatinine,BIOCHEMISTRY,143.53,umol/L,,,143.53,143.53,umol/L,,,,14682-9,SERUM,,,SCREENING,100,VISIT 1 (WEEK -2),2019-02-25,-15
CDISC-TEST,LB,CDISC-TEST-001,14,28,CREAT,Creatinine,BIOCHEMISTRY,120.29,umol/L,,,120.29,120.29,umol/L,,,,14682-9,SERUM,,,TREATMENT,200,VISIT 2 (WEEK 0),2019-03-12,1
CDISC-TEST,LB,CDISC-TEST-001,15,12,CREAT,Creatinine,BIOCHEMISTRY,112.78,umol/L,,,112.78,112.78,umol/L,,,,14682-9,SERUM,,,TREATMENT,2200,VISIT 22 (WEEK 20),2019-07-30,141
CDISC-TEST,LB,CDISC-TEST-001,16,2,CREAT,Creatinine,BIOCHEMISTRY,182.12,umol/L,,,182.12,182.12,umol/L,,,,14682-9,SERUM,,,FOLLOW-UP,2900,END OF TRIAL,2019-10-10,213
CDISC-TEST,LB,CDISC-TEST-001,17,29,HBA1CHGB,Hemoglobin A1C/Hemoglobin,GLUCOSE METABOLISM,50.2,mmol/mol,,,50.2,50.2,mmol/mol,,,,59261-8,BLOOD,,,TREATMENT,200,VISIT 2 (WEEK 0),2019-03-12,1
CDISC-TEST,LB,CDISC-TEST-001,18,27,HBA1CHGB,Hemoglobin A1C/Hemoglobin,GLUCOSE METABOLISM,90.84,mmol/mol,,,90.84,90.84,mmol/mol,,,,59261-8,BLOOD,,,TREATMENT,300,VISIT 3 (WEEK 1),2019-03-19,8
CDISC-TEST,LB,CDISC-TEST-001,19,23,HBA1CHGB,Hemoglobin A1C/Hemoglobin,GLUCOSE METABOLISM,27.29,mmol/mol,,,27.29,27.29,mmol/mol,,,,59261-8,BLOOD,,,TREATMENT,900,VISIT 9 (WEEK 7),2019-04-30,50
CDISC-TEST,LB,CDISC-TEST-001,20,24,HBA1CHGB,Hemoglobin A1C/Hemoglobin,GLUCOSE METABOLISM,68.38,mmol/mol,,,68.38,68.38,mmol/mol,,,,59261-8,BLOOD,,,TREATMENT,1400,VISIT 14 (WEEK 12),2019-06-04,85
CDISC-TEST,LB,CDISC-TEST-001,21,25,HBA1CHGB,Hemoglobin A1C/Hemoglobin,GLUCOSE METABOLISM,94.22,mmol/mol,,,94.22,94.22,mmol/mol,,,,59261-8,BLOOD,,,TREATMENT,1900,VISIT 19 (WEEK 17),2019-07-09,120
CDISC-TEST,LB,CDISC-TEST-001,22,26,HBA1CHGB,Hemoglobin A1C/Hemoglobin,GLUCOSE METABOLISM,33.23,mmol/mol,,,33.23,33.23,mmol/mol,,,,59261-8,BLOOD,,,TREATMENT,2000,VISIT 20 (WEEK 18),2019-07-16,127
CDISC-TEST,LB,CDISC-TEST-001,23,1,HBA1CHGB,Hemoglobin A1C/Hemoglobin,GLUCOSE METABOLISM,53.62,mmol/mol,,,53.62,53.62,mmol/mol,,,,59261-8,BLOOD,,,TREATMENT,2100,VISIT 21 (WEEK 19),2019-07-23,134
CDISC-TEST,LB,CDISC-TEST-001,24,13,HBA1CHGB,Hemoglobin A1C/Hemoglobin,GLUCOSE METABOLISM,34.48,mmol/mol,,,34.48,34.48,mmol/mol,,,,59261-8,BLOOD,,,TREATMENT,2200,VISIT 22 (WEEK 20),2019-07-30,141
CDISC-TEST,LB,CDISC-TEST-001,25,22,HBA1CHGB,Hemoglobin A1C/Hemoglobin,GLUCOSE METABOLISM,77.87,mmol/mol,,,77.87,77.87,mmol/mol,,,,59261-8,BLOOD,,,TREATMENT,2800,VISIT 28 (WEEK 26),2019-09-10,183
CDISC-TEST,LB,CDISC-TEST-001,26,3,HBA1CHGB,Hemoglobin A1C/Hemoglobin,GLUCOSE METABOLISM,68.43,mmol/mol,,,68.43,68.43,mmol/mol,,,,59261-8,BLOOD,,,FOLLOW-UP,2900,END OF TRIAL,2019-10-10,213
CDISC-TEST,LB,CDISC-TEST-001,27,45,HCT,Hematocrit,HAEMATOLOGY,41.62,%,,,41.62,41.62,%,,,,20570-8,BLOOD,,,SCREENING,100,VISIT 1 (WEEK -2),2019-02-25,-15
CDISC-TEST,LB,CDISC-TEST-001,28,36,HCT,Hematocrit,HAEMATOLOGY,38.22,%,,,38.22,38.22,%,,,,20570-8,BLOOD,,,TREATMENT,200,VISIT 2 (WEEK 0),2019-03-12,1
CDISC-TEST,LB,CDISC-TEST-001,29,20,HCT,Hematocrit,HAEMATOLOGY,39.69,%,,,39.69,39.69,%,,,,20570-8,BLOOD,,,TREATMENT,2200,VISIT 22 (WEEK 20),2019-07-30,141
CDISC-TEST,LB,CDISC-TEST-001,30,10,HCT,Hematocrit,HAEMATOLOGY,44.36,%,,,44.36,44.36,%,,,,20570-8,BLOOD,,,FOLLOW-UP,2900,END OF TRIAL,2019-10-10,213
CDISC-TEST,LB,CDISC-TEST-001,31,44,HDL,HDL Cholesterol,LIPIDS,1.94,mmol/L,,,1.94,1.94,mmol/L,,,,14646-4,SERUM,,,SCREENING,100,VISIT 1 (WEEK -2),2019-02-25,-15
CDISC-TEST,LB,CDISC-TEST-001,32,35,HDL,HDL Cholesterol,LIPIDS,0.9,mmol/L,,,0.9,0.9,mmol/L,,,,14646-4,SERUM,,,TREATMENT,200,VISIT 2 (WEEK 0),2019-03-12,1
CDISC-TEST,LB,CDISC-TEST-001,33,19,HDL,HDL Cholesterol,LIPIDS,0.36,mmol/L,,,0.36,0.36,mmol/L,,,,14646-4,SERUM,,,TREATMENT,2200,VISIT 22 (WEEK 20),2019-07-30,141
CDISC-TEST,LB,CDISC-TEST-001,34,9,HDL,HDL Cholesterol,LIPIDS,1.55,mmol/L,,,1.55,1.55,mmol/L,,,,14646-4,SERUM,,,FOLLOW-UP,2900,END OF TRIAL,2019-10-10,213
CDISC-TEST,LB,CDISC-TEST-001,35,42,HGB,Hemoglobin,HAEMATOLOGY,9.01,mmol/L,,,9.01,9.01,mmol/L,,,,718-7,BLOOD,,,SCREENING,100,VISIT 1 (WEEK -2),2019-02-25,-15
CDISC-TEST,LB,CDISC-TEST-001,36,33,HGB,Hemoglobin,HAEMATOLOGY,8.28,mmol/L,,,8.28,8.279999999999998,mmol/L,,,,718-7,BLOOD,,,TREATMENT,200,VISIT 2 (WEEK 0),2019-03-12,1
CDISC-TEST,LB,CDISC-TEST-001,37,17,HGB,Hemoglobin,HAEMATOLOGY,6.91,mmol/L,,,6.91,6.91,mmol/L,,,,718-7,BLOOD,,,TREATMENT,2200,VISIT 22 (WEEK 20),2019-07-30,141
CDISC-TEST,LB,CDISC-TEST-001,38,7,HGB,Hemoglobin,HAEMATOLOGY,8.67,mmol/L,,,8.67,8.67,mmol/L,,,,718-7,BLOOD,,,FOLLOW-UP,2900,END OF TRIAL,2019-10-10,213
CDISC-TEST,LB,CDISC-TEST-001,39,41,LDL,LDL Cholesterol,LIPIDS,0.52,mmol/L,,,0.52,0.52,mmol/L,,,,22748-8,SERUM,,,SCREENING,100,VISIT 1 (WEEK -2),2019-02-25,-15
CDISC-TEST,LB,CDISC-TEST-001,40,32,LDL,LDL Cholesterol,LIPIDS,2.76,mmol/L,,,2.76,2.76,mmol/L,,,,22748-8,SERUM,,,TREATMENT,200,VISIT 2 (WEEK 0),2019-03-12,1
CDISC-TEST,LB,CDISC-TEST-001,41,16,LDL,LDL Cholesterol,LIPIDS,2.32,mmol/L,,,2.32,2.32,mmol/L,,,,22748-8,SERUM,,,TREATMENT,2200,VISIT 22 (WEEK 20),2019-07-30,141
CDISC-TEST,LB,CDISC-TEST-001,42,6,LDL,LDL Cholesterol,LIPIDS,1.84,mmol/L,,,1.84,1.84,mmol/L,,,,22748-8,SERUM,,,FOLLOW-UP,2900,END OF TRIAL,2019-10-10,213
CDISC-TEST,LB,CDISC-TEST-001,43,40,PLAT,Platelets,HAEMATOLOGY,231.11,10^9/L,,,231.11,231.11,10^9/L,,,,26515-7,BLOOD,,,SCREENING,100,VISIT 1 (WEEK -2),2019-02-25,-15
CDISC-TEST,LB,CDISC-TEST-001,44,31,PLAT,Platelets,HAEMATOLOGY,159.33,10^9/L,,,159.33,159.33,10^9/L,,,,26515-7,BLOOD,,,TREATMENT,200,VISIT 2 (WEEK 0),2019-03-12,1
CDISC-TEST,LB,CDISC-TEST-001,45,15,PLAT,Platelets,HAEMATOLOGY,254.02,10^9/L,,,254.02,254.02,10^9/L,,,,26515-7,BLOOD,,,TREATMENT,2200,VISIT 22 (WEEK 20),2019-07-30,141
CDISC-TEST,LB,CDISC-TEST-001,46,5,PLAT,Platelets,HAEMATOLOGY,233.35,10^9/L,,,233.35,233.35,10^9/L,,,,26515-7,BLOOD,,,FOLLOW-UP,2900,END OF TRIAL,2019-10-10,213
CDISC-TEST,LB,CDISC-TEST-002,47,76,ALB,Albumin,BIOCHEMISTRY,4.02,g/dL,,,4.02,4.02,g/dL,,,,1751-7,SERUM,,,SCREENING,100,VISIT 1 (WEEK -2),2019-01-15,-15
CDISC-TEST,LB,CDISC-TEST-002,48,90,ALB,Albumin,BIOCHEMISTRY,4.88,g/dL,,,4.88,4.88,g/dL,,,,1751-7,SERUM,,,TREATMENT,200,VISIT 2 (WEEK 0),2019-01-30,1
CDISC-TEST,LB,CDISC-TEST-002,49,57,ALB,Albumin,BIOCHEMISTRY,4.28,g/dL,,,4.28,4.28,g/dL,,,,1751-7,SERUM,,,TREATMENT,2200,VISIT 22 (WEEK 20),2019-06-19,141
CDISC-TEST,LB,CDISC-TEST-002,50,67,ALB,Albumin,BIOCHEMISTRY,4.14,g/dL,,,4.14,4.14,g/dL,,,,1751-7,SERUM,,,FOLLOW-UP,2900,END OF TRIAL,2019-08-30,213
CDISC-TEST,LB,CDISC-TEST-002,51,73,ALT,Alanine Aminotransferase,BIOCHEMISTRY,31.55,U/L,,,31.55,31.55,U/L,,,,1742-6,SERUM,,,SCREENING,100,VISIT 1 (WEEK -2),2019-01-15,-15
CDISC-TEST,LB,CDISC-TEST-002,52,87,ALT,Alanine Aminotransferase,BIOCHEMISTRY,39.7,U/L,,,39.7,39.7,U/L,,,,1742-6,SERUM,,,TREATMENT,200,VISIT 2 (WEEK 0),2019-01-30,1
CDISC-TEST,LB,CDISC-TEST-002,53,54,ALT,Alanine Aminotransferase,BIOCHEMISTRY,41.15,U/L,,,41.15,41.15,U/L,,,,1742-6,SERUM,,,TREATMENT,2200,VISIT 22 (WEEK 20),2019-06-19,141
CDISC-TEST,LB,CDISC-TEST-002,54,64,ALT,Alanine Aminotransferase,BIOCHEMISTRY,26.36,U/L,,,26.36,26.36,U/L,,,,1742-6,SERUM,,,FOLLOW-UP,2900,END OF TRIAL,2019-08-30,213
CDISC-TEST,LB,CDISC-TEST-002,55,69,CHOL,Cholesterol,LIPIDS,4.04,mmol/L,,,4.04,4.04,mmol/L,,,,2093-3,SERUM,,,SCREENING,100,VISIT 1 (WEEK -2),2019-01-15,-15
CDISC-TEST,LB,CDISC-TEST-002,56,83,CHOL,Cholesterol,LIPIDS,4.73,mmol/L,,,4.73,4.73,mmol/L,,,,2093-3,SERUM,,,TREATMENT,200,VISIT 2 (WEEK 0),2019-01-30,1
CDISC-TEST,LB,CDISC-TEST-002,57,50,CHOL,Cholesterol,LIPIDS,4.76,mmol/L,,,4.76,4.76,mmol/L,,,,2093-3,SERUM,,,TREATMENT,2200,VISIT 22 (WEEK 20),2019-06-19,141
CDISC-TEST,LB,CDISC-TEST-002,58,60,CHOL,Cholesterol,LIPIDS,5.82,mmol/L,,,5.82,5.82,mmol/L,,,,2093-3,SERUM,,,FOLLOW-UP,2900,END OF TRIAL,2019-08-30,213
CDISC-TEST,LB,CDISC-TEST-002,59,68,CREAT,Creatinine,BIOCHEMISTRY,107.55,umol/L,,,107.55,107.55,umol/L,,,,14682-9,SERUM,,,SCREENING,100,VISIT 1 (WEEK -2),2019-01-15,-15
CDISC-TEST,LB,CDISC-TEST-002,60,81,CREAT,Creatinine,BIOCHEMISTRY,34.13,umol/L,,,34.13,34.13,umol/L,,,,14682-9,SERUM,,,TREATMENT,200,VISIT 2 (WEEK 0),2019-01-30,1
CDISC-TEST,LB,CDISC-TEST-002,61,48,CREAT,Creatinine,BIOCHEMISTRY,62.68,umol/L,,,62.68,62.68,umol/L,,,,14682-9,SERUM,,,TREATMENT,2200,VISIT 22 (WEEK 20),2019-06-19,141
CDISC-TEST,LB,CDISC-TEST-002,62,58,CREAT,Creatinine,BIOCHEMISTRY,43.15,umol/L,,,43.15,43.15,umol/L,,,,14682-9,SERUM,,,FOLLOW-UP,2900,END OF TRIAL,2019-08-30,213
CDISC-TEST,LB,CDISC-TEST-002,63,82,HBA1CHGB,Hemoglobin A1C/Hemoglobin,GLUCOSE METABOLISM,64.9,mmol/mol,,,64.9,64.9,mmol/mol,,,,59261-8,BLOOD,,,TREATMENT,200,VISIT 2 (WEEK 0),2019-01-30,1
CDISC-TEST,LB,CDISC-TEST-002,64,77,HBA1CHGB,Hemoglobin A1C/Hemoglobin,GLUCOSE METABOLISM,87.37,mmol/mol,,,87.37,87.37,mmol/mol,,,,59261-8,BLOOD,,,TREATMENT,300,VISIT 3 (WEEK 1),2019-02-06,8
CDISC-TEST,LB,CDISC-TEST-002,65,47,HBA1CHGB,Hemoglobin A1C/Hemoglobin,GLUCOSE METABOLISM,19.6,mmol/mol,,,19.6,19.6,mmol/mol,,,,59261-8,BLOOD,,,TREATMENT,900,VISIT 9 (WEEK 7),2019-03-20,50
CDISC-TEST,LB,CDISC-TEST-002,66,79,HBA1CHGB,Hemoglobin A1C/Hemoglobin,GLUCOSE METABOLISM,88.92,mmol/mol,,,88.92,88.92,mmol/mol,,,,59261-8,BLOOD,,,TREATMENT,1400,VISIT 14 (WEEK 12),2019-04-24,85
CDISC-TEST,LB,CDISC-TEST-002,67,92,HBA1CHGB,Hemoglobin A1C/Hemoglobin,GLUCOSE METABOLISM,93.8,mmol/mol,,,93.8,93.8,mmol/mol,,,,59261-8,BLOOD,,,TREATMENT,1900,VISIT 19 (WEEK 17),2019-05-29,120
CDISC-TEST,LB,CDISC-TEST-002,68,91,HBA1CHGB,Hemoglobin A1C/Hemoglobin,GLUCOSE METABOLISM,39.88,mmol/mol,,,39.88,39.88,mmol/mol,,,,59261-8,BLOOD,,,TREATMENT,2000,VISIT 20 (WEEK 18),2019-06-05,127
CDISC-TEST,LB,CDISC-TEST-002,69,78,HBA1CHGB,Hemoglobin A1C/Hemoglobin,GLUCOSE METABOLISM,85.57,mmol/mol,,,85.57,85.57,mmol/mol,,,,59261-8,BLOOD,,,TREATMENT,2100,VISIT 21 (WEEK 19),2019-06-12,134
CDISC-TEST,LB,CDISC-TEST-002,70,49,HBA1CHGB,Hemoglobin A1C/Hemoglobin,GLUCOSE METABOLISM,83.95,mmol/mol,,,83.95,83.95,mmol/mol,,,,59261-8,BLOOD,,,TREATMENT,2200,VISIT 22 (WEEK 20),2019-06-19,141
CDISC-TEST,LB,CDISC-TEST-002,71,80,HBA1CHGB,Hemoglobin A1C/Hemoglobin,GLUCOSE METABOLISM,67.34,mmol/mol,,,67.34,67.34,mmol/mol,,,,59261-8,BLOOD,,,TREATMENT,2800,VISIT 28 (WEEK 26),2019-07-31,183
CDISC-TEST,LB,CDISC-TEST-002,72,59,HBA1CHGB,Hemoglobin A1C/Hemoglobin,GLUCOSE METABOLISM,56.75,mmol/mol,,,56.75,56.75,mmol/mol,,,,59261-8,BLOOD,,,FOLLOW-UP,2900,END OF TRIAL,2019-08-30,213
CDISC-TEST,LB,CDISC-TEST-002,73,75,HCT,Hematocrit,HAEMATOLOGY,42.73,%,,,42.73,42.73,%,,,,20570-8,BLOOD,,,SCREENING,100,VISIT 1 (WEEK -2),2019-01-15,-15
CDISC-TEST,LB,CDISC-TEST-002,74,89,HCT,Hematocrit,HAEMATOLOGY,46.44,%,,,46.44,46.44,%,,,,20570-8,BLOOD,,,TREATMENT,200,VISIT 2 (WEEK 0),2019-01-30,1
CDISC-TEST,LB,CDISC-TEST-002,75,56,HCT,Hematocrit,HAEMATOLOGY,40.73,%,,,40.73,40.73,%,,,,20570-8,BLOOD,,,TREATMENT,2200,VISIT 22 (WEEK 20),2019-06-19,141
CDISC-TEST,LB,CDISC-TEST-002,76,66,HCT,Hematocrit,HAEMATOLOGY,50.11,%,,,50.11,50.11,%,,,,20570-8,BLOOD,,,FOLLOW-UP,2900,END OF TRIAL,2019-08-30,213
CDISC-TEST,LB,CDISC-TEST-002,77,74,HDL,HDL Cholesterol,LIPIDS,1.15,mmol/L,,,1.15,1.15,mmol/L,,,,14646-4,SERUM,,,SCREENING,100,VISIT 1 (WEEK -2),2019-01-15,-15
CDISC-TEST,LB,CDISC-TEST-002,78,88,HDL,HDL Cholesterol,LIPIDS,0.38,mmol/L,,,0.38,0.38,mmol/L,,,,14646-4,SERUM,,,TREATMENT,200,VISIT 2 (WEEK 0),2019-01-30,1
CDISC-TEST,LB,CDISC-TEST-002,79,55,HDL,HDL Cholesterol,LIPIDS,1.46,mmol/L,,,1.46,1.46,mmol/L,,,,14646-4,SERUM,,,TREATMENT,2200,VISIT 22 (WEEK 20),2019-06-19,141
CDISC-TEST,LB,CDISC-TEST-002,80,65,HDL,HDL Cholesterol,LIPIDS,1.58,mmol/L,,,1.58,1.58,mmol/L,,,,14646-4,SERUM,,,FOLLOW-UP,2900,END OF TRIAL,2019-08-30,213
CDISC-TEST,LB,CDISC-TEST-002,81,72,HGB,Hemoglobin,HAEMATOLOGY,7.56,mmol/L,,,7.56,7.56,mmol/L,,,,718-7,BLOOD,,,SCREENING,100,VISIT 1 (WEEK -2),2019-01-15,-15
CDISC-TEST,LB,CDISC-TEST-002,82,86,HGB,Hemoglobin,HAEMATOLOGY,8.05,mmol/L,,,8.05,8.05,mmol/L,,,,718-7,BLOOD,,,TREATMENT,200,VISIT 2 (WEEK 0),2019-01-30,1
CDISC-TEST,LB,CDISC-TEST-002,83,53,HGB,Hemoglobin,HAEMATOLOGY,9.03,mmol/L,,,9.03,9.03,mmol/L,,,,718-7,BLOOD,,,TREATMENT,2200,VISIT 22 (WEEK 20),2019-06-19,141
CDISC-TEST,LB,CDISC-TEST-002,84,63,HGB,Hemoglobin,HAEMATOLOGY,7.87,mmol/L,,,7.87,7.87,mmol/L,,,,718-7,BLOOD,,,FOLLOW-UP,2900,END OF TRIAL,2019-08-30,213
CDISC-TEST,LB,CDISC-TEST-002,85,71,LDL,LDL Cholesterol,LIPIDS,0.74,mmol/L,,,0.74,0.74,mmol/L,,,,22748-8,SERUM,,,SCREENING,100,VISIT 1 (WEEK -2),2019-01-15,-15
CDISC-TEST,LB,CDISC-TEST-002,86,85,LDL,LDL Cholesterol,LIPIDS,0.91,mmol/L,,,0.91,0.9099999999999999,mmol/L,,,,22748-8,SERUM,,,TREATMENT,200,VISIT 2 (WEEK 0),2019-01-30,1
CDISC-TEST,LB,CDISC-TEST-002,87,52,LDL,LDL Cholesterol,LIPIDS,2.64,mmol/L,,,2.64,2.64,mmol/L,,,,22748-8,SERUM,,,TREATMENT,2200,VISIT 22 (WEEK 20),2019-06-19,141
CDISC-TEST,LB,CDISC-TEST-002,88,62,LDL,LDL Cholesterol,LIPIDS,0.02,mmol/L,,,0.02,0.02,mmol/L,,,,22748-8,SERUM,,,FOLLOW-UP,2900,END OF TRIAL,2019-08-30,213
CDISC-TEST,LB,CDISC-TEST-002,89,70,PLAT,Platelets,HAEMATOLOGY,266.53,10^9/L,,,266.53,266.53,10^9/L,,,,26515-7,BLOOD,,,SCREENING,100,VISIT 1 (WEEK -2),2019-01-15,-15
CDISC-TEST,LB,CDISC-TEST-002,90,84,PLAT,Platelets,HAEMATOLOGY,231.28,10^9/L,,,231.28,231.28,10^9/L,,,,26515-7,BLOOD,,,TREATMENT,200,VISIT 2 (WEEK 0),2019-01-30,1
CDISC-TEST,LB,CDISC-TEST-002,91,51,PLAT,Platelets,HAEMATOLOGY,128.57,10^9/L,,,128.57,128.57,10^9/L,,,,26515-7,BLOOD,,,TREATMENT,2200,VISIT 22 (WEEK 20),2019-06-19,141
CDISC-TEST,LB,CDISC-TEST-002,92,61,PLAT,Platelets,HAEMATOLOGY,334.9,10^9/L,,,334.9,334.9,10^9/L,,,,26515-7,BLOOD,,,FOLLOW-UP,2900,END OF TRIAL,2019-08-30,213
CDISC-TEST,LB,CDISC-TEST-003,93,102,ALB,Albumin,BIOCHEMISTRY,4.25,g/dL,,,4.25,4.25,g/dL,,,,1751-7,SERUM,,,SCREENING,100,VISIT 1 (WEEK -2),2019-01-11,-15
CDISC-TEST,LB,CDISC-TEST-003,94,115,ALB,Albumin,BIOCHEMISTRY,3.87,g/dL,,,3.87,3.87,g/dL,,,,1751-7,SERUM,,,TREATMENT,200,VISIT 2 (WEEK 0),2019-01-26,1
CDISC-TEST,LB,CDISC-TEST-003,95,128,ALB,Albumin,BIOCHEMISTRY,3.66,g/dL,,,3.66,3.66,g/dL,,,,1751-7,SERUM,,,TREATMENT,2200,VISIT 22 (WEEK 20),2019-06-15,141
CDISC-TEST,LB,CDISC-TEST-003,96,138,ALB,Albumin,BIOCHEMISTRY,4.51,g/dL,,,4.51,4.51,g/dL,,,,1751-7,SERUM,,,FOLLOW-UP,2900,END OF TRIAL,2019-08-26,213
CDISC-TEST,LB,CDISC-TEST-003,97,99,ALT,Alanine Aminotransferase,BIOCHEMISTRY,18.9,U/L,,,18.9,18.9,U/L,,,,1742-6,SERUM,,,SCREENING,100,VISIT 1 (WEEK -2),2019-01-11,-15
CDISC-TEST,LB,CDISC-TEST-003,98,112,ALT,Alanine Aminotransferase,BIOCHEMISTRY,38.2,U/L,,,38.2,38.2,U/L,,,,1742-6,SERUM,,,TREATMENT,200,VISIT 2 (WEEK 0),2019-01-26,1
CDISC-TEST,LB,CDISC-TEST-003,99,125,ALT,Alanine Aminotransferase,BIOCHEMISTRY,27.07,U/L,,,27.07,27.07,U/L,,,,1742-6,SERUM,,,TREATMENT,2200,VISIT 22 (WEEK 20),2019-06-15,141
CDISC-TEST,LB,CDISC-TEST-003,100,135,ALT,Alanine Aminotransferase,BIOCHEMISTRY,36.5,U/L,,,36.5,36.5,U/L,,,,1742-6,SERUM,,,FOLLOW-UP,2900,END OF TRIAL,2019-08-26,213
CDISC-TEST,LB,CDISC-TEST-003,101,95,CHOL,Cholesterol,LIPIDS,2.99,mmol/L,,,2.99,2.99,mmol/L,,,,2093-3,SERUM,,,SCREENING,100,VISIT 1 (WEEK -2),2019-01-11,-15
CDISC-TEST,LB,CDISC-TEST-003,102,108,CHOL,Cholesterol,LIPIDS,4.26,mmol/L,,,4.26,4.26,mmol/L,,,,2093-3,SERUM,,,TREATMENT,200,VISIT 2 (WEEK 0),2019-01-26,1
CDISC-TEST,LB,CDISC-TEST-003,103,121,CHOL,Cholesterol,LIPIDS,4.93,mmol/L,,,4.93,4.93,mmol/L,,,,2093-3,SERUM,,,TREATMENT,2200,VISIT 22 (WEEK 20),2019-06-15,141
CDISC-TEST,LB,CDISC-TEST-003,104,131,CHOL,Cholesterol,LIPIDS,4.31,mmol/L,,,4.31,4.31,mmol/L,,,,2093-3,SERUM,,,FOLLOW-UP,2900,END OF TRIAL,2019-08-26,213
CDISC-TEST,LB,CDISC-TEST-003,105,94,CREAT,Creatinine,BIOCHEMISTRY,72.18,umol/L,,,72.18,72.18,umol/L,,,,14682-9,SERUM,,,SCREENING,100,VISIT 1 (WEEK -2),2019-01-11,-15
CDISC-TEST,LB,CDISC-TEST-003,106,106,CREAT,Creatinine,BIOCHEMISTRY,67.4,umol/L,,,67.4,67.4,umol/L,,,,14682-9,SERUM,,,TREATMENT,200,VISIT 2 (WEEK 0),2019-01-26,1
CDISC-TEST,LB,CDISC-TEST-003,107,119,CREAT,Creatinine,BIOCHEMISTRY,80.13,umol/L,,,80.13,80.13,umol/L,,,,14682-9,SERUM,,,TREATMENT,2200,VISIT 22 (WEEK 20),2019-06-15,141
CDISC-TEST,LB,CDISC-TEST-003,108,129,CREAT,Creatinine,BIOCHEMISTRY,33.54,umol/L,,,33.54,33.54,umol/L,,,,14682-9,SERUM,,,FOLLOW-UP,2900,END OF TRIAL,2019-08-26,213
CDISC-TEST,LB,CDISC-TEST-003,109,107,HBA1CHGB,Hemoglobin A1C/Hemoglobin,GLUCOSE METABOLISM,32.79,mmol/mol,,,32.79,32.79,mmol/mol,,,,59261-8,BLOOD,,,TREATMENT,200,VISIT 2 (WEEK 0),2019-01-26,1
CDISC-TEST,LB,CDISC-TEST-003,110,93,HBA1CHGB,Hemoglobin A1C/Hemoglobin,GLUCOSE METABOLISM,52.33,mmol/mol,,,52.33,52.33,mmol/mol,,,,59261-8,BLOOD,,,TREATMENT,300,VISIT 3 (WEEK 1),2019-02-02,8
CDISC-TEST,LB,CDISC-TEST-003,111,104,HBA1CHGB,Hemoglobin A1C/Hemoglobin,GLUCOSE METABOLISM,86.92,mmol/mol,,,86.92,86.92,mmol/mol,,,,59261-8,BLOOD,,,TREATMENT,900,VISIT 9 (WEEK 7),2019-03-16,50
CDISC-TEST,LB,CDISC-TEST-003,112,103,HBA1CHGB,Hemoglobin A1C/Hemoglobin,GLUCOSE METABOLISM,67.11,mmol/mol,,,67.11,67.11,mmol/mol,,,,59261-8,BLOOD,,,TREATMENT,1400,VISIT 14 (WEEK 12),2019-04-20,85
CDISC-TEST,LB,CDISC-TEST-003,113,116,HBA1CHGB,Hemoglobin A1C/Hemoglobin,GLUCOSE METABOLISM,80.22,mmol/mol,,,80.22,80.22,mmol/mol,,,,59261-8,BLOOD,,,TREATMENT,1900,VISIT 19 (WEEK 17),2019-05-25,120
CDISC-TEST,LB,CDISC-TEST-003,114,117,HBA1CHGB,Hemoglobin A1C/Hemoglobin,GLUCOSE METABOLISM,64.03,mmol/mol,,,64.03,64.03,mmol/mol,,,,59261-8,BLOOD,,,TREATMENT,2000,VISIT 20 (WEEK 18),2019-06-01,127
CDISC-TEST,LB,CDISC-TEST-003,115,105,HBA1CHGB,Hemoglobin A1C/Hemoglobin,GLUCOSE METABOLISM,58.68,mmol/mol,,,58.68,58.68,mmol/mol,,,,59261-8,BLOOD,,,TREATMENT,2100,VISIT 21 (WEEK 19),2019-06-08,134
CDISC-TEST,LB,CDISC-TEST-003,116,120,HBA1CHGB,Hemoglobin A1C/Hemoglobin,GLUCOSE METABOLISM,79.52,mmol/mol,,,79.52,79.52,mmol/mol,,,,59261-8,BLOOD,,,TREATMENT,2200,VISIT 22 (WEEK 20),2019-06-15,141
CDISC-TEST,LB,CDISC-TEST-003,117,118,HBA1CHGB,Hemoglobin A1C/Hemoglobin,GLUCOSE METABOLISM,60.69,mmol/mol,,,60.69,60.69,mmol/mol,,,,59261-8,BLOOD,,,TREATMENT,2800,VISIT 28 (WEEK 26),2019-07-27,183
CDISC-TEST,LB,CDISC-TEST-003,118,130,HBA1CHGB,Hemoglobin A1C/Hemoglobin,GLUCOSE METABOLISM,53.89,mmol/mol,,,53.89,53.89,mmol/mol,,,,59261-8,BLOOD,,,FOLLOW-UP,2900,END OF TRIAL,2019-08-26,213
CDISC-TEST,LB,CDISC-TEST-003,119,101,HCT,Hematocrit,HAEMATOLOGY,38.07,%,,,38.07,38.07,%,,,,20570-8,BLOOD,,,SCREENING,100,VISIT 1 (WEEK -2),2019-01-11,-15
CDISC-TEST,LB,CDISC-TEST-003,120,114,HCT,Hematocrit,HAEMATOLOGY,39.61,%,,,39.61,39.61,%,,,,20570-8,BLOOD,,,TREATMENT,200,VISIT 2 (WEEK 0),2019-01-26,1
CDISC-TEST,LB,CDISC-TEST-003,121,127,HCT,Hematocrit,HAEMATOLOGY,42.4,%,,,42.4,42.4,%,,,,20570-8,BLOOD,,,TREATMENT,2200,VISIT 22 (WEEK 20),2019-06-15,141
CDISC-TEST,LB,CDISC-TEST-003,122,137,HCT,Hematocrit,HAEMATOLOGY,42.45,%,,,42.45,42.45,%,,,,20570-8,BLOOD,,,FOLLOW-UP,2900,END OF TRIAL,2019-08-26,213
CDISC-TEST,LB,CDISC-TEST-003,123,100,HDL,HDL Cholesterol,LIPIDS,0.77,mmol/L,,,0.77,0.77,mmol/L,,,,14646-4,SERUM,,,SCREENING,100,VISIT 1 (WEEK -2),2019-01-11,-15
CDISC-TEST,LB,CDISC-TEST-003,124,113,HDL,HDL Cholesterol,LIPIDS,1.54,mmol/L,,,1.54,1.54,mmol/L,,,,14646-4,SERUM,,,TREATMENT,200,VISIT 2 (WEEK 0),2019-01-26,1
CDISC-TEST,LB,CDISC-TEST-003,125,126,HDL,HDL Cholesterol,LIPIDS,0.99,mmol/L,,,0.99,0.99,mmol/L,,,,14646-4,SERUM,,,TREATMENT,2200,VISIT 22 (WEEK 20),2019-06-15,141
CDISC-TEST,LB,CDISC-TEST-003,126,136,HDL,HDL Cholesterol,LIPIDS,1.51,mmol/L,,,1.51,1.51,mmol/L,,,,14646-4,SERUM,,,FOLLOW-UP,2900,END OF TRIAL,2019-08-26,213
CDISC-TEST,LB,CDISC-TEST-003,127,98,HGB,Hemoglobin,HAEMATOLOGY,8.92,mmol/L,,,8.92,8.92,mmol/L,,,,718-7,BLOOD,,,SCREENING,100,VISIT 1 (WEEK -2),2019-01-11,-15
CDISC-TEST,LB,CDISC-TEST-003,128,111,HGB,Hemoglobin,HAEMATOLOGY,6.9,mmol/L,,,6.9,6.9,mmol/L,,,,718-7,BLOOD,,,TREATMENT,200,VISIT 2 (WEEK 0),2019-01-26,1
CDISC-TEST,LB,CDISC-TEST-003,129,124,HGB,Hemoglobin,HAEMATOLOGY,9.44,mmol/L,,,9.44,9.44,mmol/L,,,,718-7,BLOOD,,,TREATMENT,2200,VISIT 22 (WEEK 20),2019-06-15,141
CDISC-TEST,LB,CDISC-TEST-003,130,134,HGB,Hemoglobin,HAEMATOLOGY,8.45,mmol/L,,,8.45,8.449999999999998,mmol/L,,,,718-7,BLOOD,,,FOLLOW-UP,2900,END OF TRIAL,2019-08-26,213
CDISC-TEST,LB,CDISC-TEST-003,131,97,LDL,LDL Cholesterol,LIPIDS,3.45,mmol/L,,,3.45,3.45,mmol/L,,,,22748-8,SERUM,,,SCREENING,100,VISIT 1 (WEEK -2),2019-01-11,-15
CDISC-TEST,LB,CDISC-TEST-003,132,110,LDL,LDL Cholesterol,LIPIDS,3.54,mmol/L,,,3.54,3.54,mmol/L,,,,22748-8,SERUM,,,TREATMENT,200,VISIT 2 (WEEK 0),2019-01-26,1
CDISC-TEST,LB,CDISC-TEST-003,133,123,LDL,LDL Cholesterol,LIPIDS,-0.49,mmol/L,,,-0.49,-0.49000000000000005,mmol/L,,,,22748-8,SERUM,,,TREATMENT,2200,VISIT 22 (WEEK 20),2019-06-15,141
CDISC-TEST,LB,CDISC-TEST-003,134,133,LDL,LDL Cholesterol,LIPIDS,1.66,mmol/L,,,1.66,1.66,mmol/L,,,,22748-8,SERUM,,,FOLLOW-UP,2900,END OF TRIAL,2019-08-26,213
CDISC-TEST,LB,CDISC-TEST-003,135,96,PLAT,Platelets,HAEMATOLOGY,218.61,10^9/L,,,218.61,218.61,10^9/L,,,,26515-7,BLOOD,,,SCREENING,100,VISIT 1 (WEEK -2),2019-01-11,-15
CDISC-TEST,LB,CDISC-TEST-003,136,109,PLAT,Platelets,HAEMATOLOGY,57.6,10^9/L,,,57.6,57.6,10^9/L,,,,26515-7,BLOOD,,,TREATMENT,200,VISIT 2 (WEEK 0),2019-01-26,1
CDISC-TEST,LB,CDISC-TEST-003,137,122,PLAT,Platelets,HAEMATOLOGY,331.21,10^9/L,,,331.21,331.21,10^9/L,,,,26515-7,BLOOD,,,TREATMENT,2200,VISIT 22 (WEEK 20),2019-06-15,141
CDISC-TEST,LB,CDISC-TEST-003,138,132,PLAT,Platelets,HAEMATOLOGY,192.97,10^9/L,,,192.97,192.97,10^9/L,,,,26515-7,BLOOD,,,FOLLOW-UP,2900,END OF TRIAL,2019-08-26,213
CDISC-TEST,LB,CDISC-TEST-004,139,167,ALB,Albumin,BIOCHEMISTRY,4.67,g/dL,,,4.67,4.67,g/dL,,,,1751-7,SERUM,,,SCREENING,100,VISIT 1 (WEEK -2),2019-02-01,-15
CDISC-TEST,LB,CDISC-TEST-004,140,148,ALB,Albumin,BIOCHEMISTRY,4.13,g/dL,,,4.13,4.13,g/dL,,,,1751-7,SERUM,,,TREATMENT,200,VISIT 2 (WEEK 0),2019-02-16,1
CDISC-TEST,LB,CDISC-TEST-004,141,182,ALB,Albumin,BIOCHEMISTRY,4.2,g/dL,,,4.2,4.2,g/dL,,,,1751-7,SERUM,,,TREATMENT,2200,VISIT 22 (WEEK 20),2019-07-06,141
CDISC-TEST,LB,CDISC-TEST-004,142,158,ALB,Albumin,BIOCHEMISTRY,4.05,g/dL,,,4.05,4.05,g/dL,,,,1751-7,SERUM,,,FOLLOW-UP,2900,END OF TRIAL,2019-09-16,213
CDISC-TEST,LB,CDISC-TEST-004,143,164,ALT,Alanine Aminotransferase,BIOCHEMISTRY,28.51,U/L,,,28.51,28.51,U/L,,,,1742-6,SERUM,,,SCREENING,100,VISIT 1 (WEEK -2),2019-02-01,-15
CDISC-TEST,LB,CDISC-TEST-004,144,145,ALT,Alanine Aminotransferase,BIOCHEMISTRY,13,U/L,,,13,13,U/L,,,,1742-6,SERUM,,,TREATMENT,200,VISIT 2 (WEEK 0),2019-02-16,1
CDISC-TEST,LB,CDISC-TEST-004,145,179,ALT,Alanine Aminotransferase,BIOCHEMISTRY,10.26,U/L,,,10.26,10.26,U/L,,,,1742-6,SERUM,,,TREATMENT,2200,VISIT 22 (WEEK 20),2019-07-06,141
CDISC-TEST,LB,CDISC-TEST-004,146,155,ALT,Alanine Aminotransferase,BIOCHEMISTRY,34.56,U/L,,,34.56,34.56,U/L,,,,1742-6,SERUM,,,FOLLOW-UP,2900,END OF TRIAL,2019-09-16,213
CDISC-TEST,LB,CDISC-TEST-004,147,160,CHOL,Cholesterol,LIPIDS,4.1,mmol/L,,,4.1,4.1,mmol/L,,,,2093-3,SERUM,,,SCREENING,100,VISIT 1 (WEEK -2),2019-02-01,-15
CDISC-TEST,LB,CDISC-TEST-004,148,141,CHOL,Cholesterol,LIPIDS,3.83,mmol/L,,,3.83,3.83,mmol/L,,,,2093-3,SERUM,,,TREATMENT,200,VISIT 2 (WEEK 0),2019-02-16,1
CDISC-TEST,LB,CDISC-TEST-004,149,175,CHOL,Cholesterol,LIPIDS,4.41,mmol/L,,,4.41,4.41,mmol/L,,,,2093-3,SERUM,,,TREATMENT,2200,VISIT 22 (WEEK 20),2019-07-06,141
CDISC-TEST,LB,CDISC-TEST-004,150,151,CHOL,Cholesterol,LIPIDS,4.57,mmol/L,,,4.57,4.57,mmol/L,,,,2093-3,SERUM,,,FOLLOW-UP,2900,END OF TRIAL,2019-09-16,213
CDISC-TEST,LB,CDISC-TEST-004,151,159,CREAT,Creatinine,BIOCHEMISTRY,118.48,umol/L,,,118.48,118.48,umol/L,,,,14682-9,SERUM,,,SCREENING,100,VISIT 1 (WEEK -2),2019-02-01,-15
CDISC-TEST,LB,CDISC-TEST-004,152,139,CREAT,Creatinine,BIOCHEMISTRY,97.33,umol/L,,,97.33,97.33,umol/L,,,,14682-9,SERUM,,,TREATMENT,200,VISIT 2 (WEEK 0),2019-02-16,1
CDISC-TEST,LB,CDISC-TEST-004,153,173,CREAT,Creatinine,BIOCHEMISTRY,144.4,umol/L,,,144.4,144.4,umol/L,,,,14682-9,SERUM,,,TREATMENT,2200,VISIT 22 (WEEK 20),2019-07-06,141
CDISC-TEST,LB,CDISC-TEST-004,154,149,CREAT,Creatinine,BIOCHEMISTRY,83.06,umol/L,,,83.06,83.06,umol/L,,,,14682-9,SERUM,,,FOLLOW-UP,2900,END OF TRIAL,2019-09-16,213
CDISC-TEST,LB,CDISC-TEST-004,155,140,HBA1CHGB,Hemoglobin A1C/Hemoglobin,GLUCOSE METABOLISM,74.85,mmol/mol,,,74.85,74.84999999999998,mmol/mol,,,,59261-8,BLOOD,,,TREATMENT,200,VISIT 2 (WEEK 0),2019-02-16,1
CDISC-TEST,LB,CDISC-TEST-004,156,184,HBA1CHGB,Hemoglobin A1C/Hemoglobin,GLUCOSE METABOLISM,90.09,mmol/mol,,,90.09,90.09,mmol/mol,,,,59261-8,BLOOD,,,TREATMENT,300,VISIT 3 (WEEK 1),2019-02-23,8
CDISC-TEST,LB,CDISC-TEST-004,157,171,HBA1CHGB,Hemoglobin A1C/Hemoglobin,GLUCOSE METABOLISM,71.6,mmol/mol,,,71.6,71.6,mmol/mol,,,,59261-8,BLOOD,,,TREATMENT,900,VISIT 9 (WEEK 7),2019-04-06,50
CDISC-TEST,LB,CDISC-TEST-004,158,168,HBA1CHGB,Hemoglobin A1C/Hemoglobin,GLUCOSE METABOLISM,45.47,mmol/mol,,,45.47,45.47,mmol/mol,,,,59261-8,BLOOD,,,TREATMENT,1400,VISIT 14 (WEEK 12),2019-05-11,85
CDISC-TEST,LB,CDISC-TEST-004,159,170,HBA1CHGB,Hemoglobin A1C/Hemoglobin,GLUCOSE METABOLISM,45.81,mmol/mol,,,45.81,45.81,mmol/mol,,,,59261-8,BLOOD,,,TREATMENT,1900,VISIT 19 (WEEK 17),2019-06-15,120
CDISC-TEST,LB,CDISC-TEST-004,160,169,HBA1CHGB,Hemoglobin A1C/Hemoglobin,GLUCOSE METABOLISM,26.97,mmol/mol,,,26.97,26.97,mmol/mol,,,,59261-8,BLOOD,,,TREATMENT,2000,VISIT 20 (WEEK 18),2019-06-22,127
CDISC-TEST,LB,CDISC-TEST-004,161,172,HBA1CHGB,Hemoglobin A1C/Hemoglobin,GLUCOSE METABOLISM,68.33,mmol/mol,,,68.33,68.33,mmol/mol,,,,59261-8,BLOOD,,,TREATMENT,2100,VISIT 21 (WEEK 19),2019-06-29,134
CDISC-TEST,LB,CDISC-TEST-004,162,174,HBA1CHGB,Hemoglobin A1C/Hemoglobin,GLUCOSE METABOLISM,51.99,mmol/mol,,,51.99,51.99,mmol/mol,,,,59261-8,BLOOD,,,TREATMENT,2200,VISIT 22 (WEEK 20),2019-07-06,141
CDISC-TEST,LB,CDISC-TEST-004,163,183,HBA1CHGB,Hemoglobin A1C/Hemoglobin,GLUCOSE METABOLISM,71,mmol/mol,,,71,71,mmol/mol,,,,59261-8,BLOOD,,,TREATMENT,2800,VISIT 28 (WEEK 26),2019-08-17,183
CDISC-TEST,LB,CDISC-TEST-004,164,150,HBA1CHGB,Hemoglobin A1C/Hemoglobin,GLUCOSE METABOLISM,49.16,mmol/mol,,,49.16,49.16,mmol/mol,,,,59261-8,BLOOD,,,FOLLOW-UP,2900,END OF TRIAL,2019-09-16,213
CDISC-TEST,LB,CDISC-TEST-004,165,166,HCT,Hematocrit,HAEMATOLOGY,38.65,%,,,38.65,38.65,%,,,,20570-8,BLOOD,,,SCREENING,100,VISIT 1 (WEEK -2),2019-02-01,-15
CDISC-TEST,LB,CDISC-TEST-004,166,147,HCT,Hematocrit,HAEMATOLOGY,39.41,%,,,39.41,39.41,%,,,,20570-8,BLOOD,,,TREATMENT,200,VISIT 2 (WEEK 0),2019-02-16,1
CDISC-TEST,LB,CDISC-TEST-004,167,181,HCT,Hematocrit,HAEMATOLOGY,44.2,%,,,44.2,44.2,%,,,,20570-8,BLOOD,,,TREATMENT,2200,VISIT 22 (WEEK 20),2019-07-06,141
CDISC-TEST,LB,CDISC-TEST-004,168,157,HCT,Hematocrit,HAEMATOLOGY,45.54,%,,,45.54,45.54,%,,,,20570-8,BLOOD,,,FOLLOW-UP,2900,END OF TRIAL,2019-09-16,213
CDISC-TEST,LB,CDISC-TEST-004,169,165,HDL,HDL Cholesterol,LIPIDS,1.43,mmol/L,,,1.43,1.43,mmol/L,,,,14646-4,SERUM,,,SCREENING,100,VISIT 1 (WEEK -2),2019-02-01,-15
CDISC-TEST,LB,CDISC-TEST-004,170,146,HDL,HDL Cholesterol,LIPIDS,1.32,mmol/L,,,1.32,1.32,mmol/L,,,,14646-4,SERUM,,,TREATMENT,200,VISIT 2 (WEEK 0),2019-02-16,1
CDISC-TEST,LB,CDISC-TEST-004,171,180,HDL,HDL Cholesterol,LIPIDS,0.86,mmol/L,,,0.86,0.86,mmol/L,,,,14646-4,SERUM,,,TREATMENT,2200,VISIT 22 (WEEK 20),2019-07-06,141
CDISC-TEST,LB,CDISC-TEST-004,172,156,HDL,HDL Cholesterol,LIPIDS,0.69,mmol/L,,,0.69,0.69,mmol/L,,,,14646-4,SERUM,,,FOLLOW-UP,2900,END OF TRIAL,2019-09-16,213
CDISC-TEST,LB,CDISC-TEST-004,173,163,HGB,Hemoglobin,HAEMATOLOGY,9.21,mmol/L,,,9.21,9.21,mmol/L,,,,718-7,BLOOD,,,SCREENING,100,VISIT 1 (WEEK -2),2019-02-01,-15
CDISC-TEST,LB,CDISC-TEST-004,174,144,HGB,Hemoglobin,HAEMATOLOGY,8.38,mmol/L,,,8.38,8.38,mmol/L,,,,718-7,BLOOD,,,TREATMENT,200,VISIT 2 (WEEK 0),2019-02-16,1
CDISC-TEST,LB,CDISC-TEST-004,175,178,HGB,Hemoglobin,HAEMATOLOGY,10.95,mmol/L,,,10.95,10.95,mmol/L,,,,718-7,BLOOD,,,TREATMENT,2200,VISIT 22 (WEEK 20),2019-07-06,141
CDISC-TEST,LB,CDISC-TEST-004,176,154,HGB,Hemoglobin,HAEMATOLOGY,6.15,mmol/L,,,6.15,6.15,mmol/L,,,,718-7,BLOOD,,,FOLLOW-UP,2900,END OF TRIAL,2019-09-16,213
CDISC-TEST,LB,CDISC-TEST-004,177,162,LDL,LDL Cholesterol,LIPIDS,3.04,mmol/L,,,3.04,3.04,mmol/L,,,,22748-8,SERUM,,,SCREENING,100,VISIT 1 (WEEK -2),2019-02-01,-15
CDISC-TEST,LB,CDISC-TEST-004,178,143,LDL,LDL Cholesterol,LIPIDS,4.23,mmol/L,,,4.23,4.23,mmol/L,,,,22748-8,SERUM,,,TREATMENT,200,VISIT 2 (WEEK 0),2019-02-16,1
CDISC-TEST,LB,CDISC-TEST-004,179,177,LDL,LDL Cholesterol,LIPIDS,0.96,mmol/L,,,0.96,0.96,mmol/L,,,,22748-8,SERUM,,,TREATMENT,2200,VISIT 22 (WEEK 20),2019-07-06,141
CDISC-TEST,LB,CDISC-TEST-004,180,153,LDL,LDL Cholesterol,LIPIDS,1.84,mmol/L,,,1.84,1.84,mmol/L,,,,22748-8,SERUM,,,FOLLOW-UP,2900,END OF TRIAL,2019-09-16,213
CDISC-TEST,LB,CDISC-TEST-004,181,161,PLAT,Platelets,HAEMATOLOGY,268.89,10^9/L,,,268.89,268.89,10^9/L,,,,26515-7,BLOOD,,,SCREENING,100,VISIT 1 (WEEK -2),2019-02-01,-15
CDISC-TEST,LB,CDISC-TEST-004,182,142,PLAT,Platelets,HAEMATOLOGY,176.86,10^9/L,,,176.86,176.86,10^9/L,,,,26515-7,BLOOD,,,TREATMENT,200,VISIT 2 (WEEK 0),2019-02-16,1
CDISC-TEST,LB,CDISC-TEST-004,183,176,PLAT,Platelets,HAEMATOLOGY,311.56,10^9/L,,,311.56,311.56,10^9/L,,,,26515-7,BLOOD,,,TREATMENT,2200,VISIT 22 (WEEK 20),2019-07-06,141
CDISC-TEST,LB,CDISC-TEST-004,184,152,PLAT,Platelets,HAEMATOLOGY,158.31,10^9/L,,,158.31,158.31,10^9/L,,,,26515-7,BLOOD,,,FOLLOW-UP,2900,END OF TRIAL,2019-09-16,213
CDISC-TEST,LB,CDISC-TEST-005,185,193,ALB,Albumin,BIOCHEMISTRY,4.25,g/dL,,,4.25,4.25,g/dL,,,,1751-7,SERUM,,,SCREENING,100,VISIT 1 (WEEK -2),2019-02-15,-15
CDISC-TEST,LB,CDISC-TEST-005,186,204,ALB,Albumin,BIOCHEMISTRY,4.13,g/dL,,,4.13,4.13,g/dL,,,,1751-7,SERUM,,,TREATMENT,200,VISIT 2 (WEEK 0),2019-03-02,1
CDISC-TEST,LB,CDISC-TEST-005,187,229,ALB,Albumin,BIOCHEMISTRY,3.92,g/dL,,,3.92,3.92,g/dL,,,,1751-7,SERUM,,,TREATMENT,2200,VISIT 22 (WEEK 20),2019-07-20,141
CDISC-TEST,LB,CDISC-TEST-005,188,216,ALB,Albumin,BIOCHEMISTRY,4.41,g/dL,,,4.41,4.41,g/dL,,,,1751-7,SERUM,,,FOLLOW-UP,2900,END OF TRIAL,2019-09-30,213
CDISC-TEST,LB,CDISC-TEST-005,189,190,ALT,Alanine Aminotransferase,BIOCHEMISTRY,17.28,U/L,,,17.28,17.28,U/L,,,,1742-6,SERUM,,,SCREENING,100,VISIT 1 (WEEK -2),2019-02-15,-15
CDISC-TEST,LB,CDISC-TEST-005,190,201,ALT,Alanine Aminotransferase,BIOCHEMISTRY,40.95,U/L,,,40.95,40.95,U/L,,,,1742-6,SERUM,,,TREATMENT,200,VISIT 2 (WEEK 0),2019-03-02,1
CDISC-TEST,LB,CDISC-TEST-005,191,226,ALT,Alanine Aminotransferase,BIOCHEMISTRY,45.8,U/L,,,45.8,45.8,U/L,,,,1742-6,SERUM,,,TREATMENT,2200,VISIT 22 (WEEK 20),2019-07-20,141
CDISC-TEST,LB,CDISC-TEST-005,192,213,ALT,Alanine Aminotransferase,BIOCHEMISTRY,30.44,U/L,,,30.44,30.44,U/L,,,,1742-6,SERUM,,,FOLLOW-UP,2900,END OF TRIAL,2019-09-30,213
CDISC-TEST,LB,CDISC-TEST-005,193,186,CHOL,Cholesterol,LIPIDS,6.66,mmol/L,,,6.66,6.66,mmol/L,,,,2093-3,SERUM,,,SCREENING,100,VISIT 1 (WEEK -2),2019-02-15,-15
CDISC-TEST,LB,CDISC-TEST-005,194,197,CHOL,Cholesterol,LIPIDS,4.3,mmol/L,,,4.3,4.3,mmol/L,,,,2093-3,SERUM,,,TREATMENT,200,VISIT 2 (WEEK 0),2019-03-02,1
CDISC-TEST,LB,CDISC-TEST-005,195,222,CHOL,Cholesterol,LIPIDS,5.35,mmol/L,,,5.35,5.35,mmol/L,,,,2093-3,SERUM,,,TREATMENT,2200,VISIT 22 (WEEK 20),2019-07-20,141
CDISC-TEST,LB,CDISC-TEST-005,196,209,CHOL,Cholesterol,LIPIDS,3.45,mmol/L,,,3.45,3.45,mmol/L,,,,2093-3,SERUM,,,FOLLOW-UP,2900,END OF TRIAL,2019-09-30,213
CDISC-TEST,LB,CDISC-TEST-005,197,185,CREAT,Creatinine,BIOCHEMISTRY,160.35,umol/L,,,160.35,160.35,umol/L,,,,14682-9,SERUM,,,SCREENING,100,VISIT 1 (WEEK -2),2019-02-15,-15
CDISC-TEST,LB,CDISC-TEST-005,198,195,CREAT,Creatinine,BIOCHEMISTRY,61.91,umol/L,,,61.91,61.91,umol/L,,,,14682-9,SERUM,,,TREATMENT,200,VISIT 2 (WEEK 0),2019-03-02,1
CDISC-TEST,LB,CDISC-TEST-005,199,220,CREAT,Creatinine,BIOCHEMISTRY,85.41,umol/L,,,85.41,85.41,umol/L,,,,14682-9,SERUM,,,TREATMENT,2200,VISIT 22 (WEEK 20),2019-07-20,141
CDISC-TEST,LB,CDISC-TEST-005,200,207,CREAT,Creatinine,BIOCHEMISTRY,132.62,umol/L,,,132.62,132.62,umol/L,,,,14682-9,SERUM,,,FOLLOW-UP,2900,END OF TRIAL,2019-09-30,213
CDISC-TEST,LB,CDISC-TEST-005,201,196,HBA1CHGB,Hemoglobin A1C/Hemoglobin,GLUCOSE METABOLISM,87.49,mmol/mol,,,87.49,87.49,mmol/mol,,,,59261-8,BLOOD,,,TREATMENT,200,VISIT 2 (WEEK 0),2019-03-02,1
CDISC-TEST,LB,CDISC-TEST-005,202,194,HBA1CHGB,Hemoglobin A1C/Hemoglobin,GLUCOSE METABOLISM,98.15,mmol/mol,,,98.15,98.15,mmol/mol,,,,59261-8,BLOOD,,,TREATMENT,300,VISIT 3 (WEEK 1),2019-03-09,8
CDISC-TEST,LB,CDISC-TEST-005,203,205,HBA1CHGB,Hemoglobin A1C/Hemoglobin,GLUCOSE METABOLISM,64.47,mmol/mol,,,64.47,64.47,mmol/mol,,,,59261-8,BLOOD,,,TREATMENT,900,VISIT 9 (WEEK 7),2019-04-20,50
CDISC-TEST,LB,CDISC-TEST-005,204,230,HBA1CHGB,Hemoglobin A1C/Hemoglobin,GLUCOSE METABOLISM,76.79,mmol/mol,,,76.79,76.79,mmol/mol,,,,59261-8,BLOOD,,,TREATMENT,1400,VISIT 14 (WEEK 12),2019-05-25,85
CDISC-TEST,LB,CDISC-TEST-005,205,218,HBA1CHGB,Hemoglobin A1C/Hemoglobin,GLUCOSE METABOLISM,43.87,mmol/mol,,,43.87,43.87,mmol/mol,,,,59261-8,BLOOD,,,TREATMENT,1900,VISIT 19 (WEEK 17),2019-06-29,120
CDISC-TEST,LB,CDISC-TEST-005,206,217,HBA1CHGB,Hemoglobin A1C/Hemoglobin,GLUCOSE METABOLISM,88.49,mmol/mol,,,88.49,88.49,mmol/mol,,,,59261-8,BLOOD,,,TREATMENT,2000,VISIT 20 (WEEK 18),2019-07-06,127
CDISC-TEST,LB,CDISC-TEST-005,207,206,HBA1CHGB,Hemoglobin A1C/Hemoglobin,GLUCOSE METABOLISM,93.02,mmol/mol,,,93.02,93.02,mmol/mol,,,,59261-8,BLOOD,,,TREATMENT,2100,VISIT 21 (WEEK 19),2019-07-13,134
CDISC-TEST,LB,CDISC-TEST-005,208,221,HBA1CHGB,Hemoglobin A1C/Hemoglobin,GLUCOSE METABOLISM,77.84,mmol/mol,,,77.84,77.84,mmol/mol,,,,59261-8,BLOOD,,,TREATMENT,2200,VISIT 22 (WEEK 20),2019-07-20,141
CDISC-TEST,LB,CDISC-TEST-005,209,219,HBA1CHGB,Hemoglobin A1C/Hemoglobin,GLUCOSE METABOLISM,32.8,mmol/mol,,,32.8,32.8,mmol/mol,,,,59261-8,BLOOD,,,TREATMENT,2800,VISIT 28 (WEEK 26),2019-08-31,183
CDISC-TEST,LB,CDISC-TEST-005,210,208,HBA1CHGB,Hemoglobin A1C/Hemoglobin,GLUCOSE METABOLISM,63.45,mmol/mol,,,63.45,63.45,mmol/mol,,,,59261-8,BLOOD,,,FOLLOW-UP,2900,END OF TRIAL,2019-09-30,213
CDISC-TEST,LB,CDISC-TEST-005,211,192,HCT,Hematocrit,HAEMATOLOGY,40.89,%,,,40.89,40.89,%,,,,20570-8,BLOOD,,,SCREENING,100,VISIT 1 (WEEK -2),2019-02-15,-15
CDISC-TEST,LB,CDISC-TEST-005,212,203,HCT,Hematocrit,HAEMATOLOGY,39.88,%,,,39.88,39.88,%,,,,20570-8,BLOOD,,,TREATMENT,200,VISIT 2 (WEEK 0),2019-03-02,1
CDISC-TEST,LB,CDISC-TEST-005,213,228,HCT,Hematocrit,HAEMATOLOGY,35.81,%,,,35.81,35.81,%,,,,20570-8,BLOOD,,,TREATMENT,2200,VISIT 22 (WEEK 20),2019-07-20,141
CDISC-TEST,LB,CDISC-TEST-005,214,215,HCT,Hematocrit,HAEMATOLOGY,44.89,%,,,44.89,44.89,%,,,,20570-8,BLOOD,,,FOLLOW-UP,2900,END OF TRIAL,2019-09-30,213
CDISC-TEST,LB,CDISC-TEST-005,215,191,HDL,HDL Cholesterol,LIPIDS,1.31,mmol/L,,,1.31,1.31,mmol/L,,,,14646-4,SERUM,,,SCREENING,100,VISIT 1 (WEEK -2),2019-02-15,-15
CDISC-TEST,LB,CDISC-TEST-005,216,202,HDL,HDL Cholesterol,LIPIDS,1.13,mmol/L,,,1.13,1.13,mmol/L,,,,14646-4,SERUM,,,TREATMENT,200,VISIT 2 (WEEK 0),2019-03-02,1
CDISC-TEST,LB,CDISC-TEST-005,217,227,HDL,HDL Cholesterol,LIPIDS,0.66,mmol/L,,,0.66,0.66,mmol/L,,,,14646-4,SERUM,,,TREATMENT,2200,VISIT 22 (WEEK 20),2019-07-20,141
CDISC-TEST,LB,CDISC-TEST-005,218,214,HDL,HDL Cholesterol,LIPIDS,0.78,mmol/L,,,0.78,0.78,mmol/L,,,,14646-4,SERUM,,,FOLLOW-UP,2900,END OF TRIAL,2019-09-30,213
CDISC-TEST,LB,CDISC-TEST-005,219,189,HGB,Hemoglobin,HAEMATOLOGY,8.13,mmol/L,,,8.13,8.13,mmol/L,,,,718-7,BLOOD,,,SCREENING,100,VISIT 1 (WEEK -2),2019-02-15,-15
CDISC-TEST,LB,CDISC-TEST-005,220,200,HGB,Hemoglobin,HAEMATOLOGY,8.22,mmol/L,,,8.22,8.22,mmol/L,,,,718-7,BLOOD,,,TREATMENT,200,VISIT 2 (WEEK 0),2019-03-02,1
CDISC-TEST,LB,CDISC-TEST-005,221,225,HGB,Hemoglobin,HAEMATOLOGY,8.43,mmol/L,,,8.43,8.43,mmol/L,,,,718-7,BLOOD,,,TREATMENT,2200,VISIT 22 (WEEK 20),2019-07-20,141
CDISC-TEST,LB,CDISC-TEST-005,222,212,HGB,Hemoglobin,HAEMATOLOGY,7.73,mmol/L,,,7.73,7.73,mmol/L,,,,718-7,BLOOD,,,FOLLOW-UP,2900,END OF TRIAL,2019-09-30,213
CDISC-TEST,LB,CDISC-TEST-005,223,188,LDL,LDL Cholesterol,LIPIDS,1.3,mmol/L,,,1.3,1.3,mmol/L,,,,22748-8,SERUM,,,SCREENING,100,VISIT 1 (WEEK -2),2019-02-15,-15
CDISC-TEST,LB,CDISC-TEST-005,224,199,LDL,LDL Cholesterol,LIPIDS,2.69,mmol/L,,,2.69,2.69,mmol/L,,,,22748-8,SERUM,,,TREATMENT,200,VISIT 2 (WEEK 0),2019-03-02,1
CDISC-TEST,LB,CDISC-TEST-005,225,224,LDL,LDL Cholesterol,LIPIDS,3.36,mmol/L,,,3.36,3.36,mmol/L,,,,22748-8,SERUM,,,TREATMENT,2200,VISIT 22 (WEEK 20),2019-07-20,141
CDISC-TEST,LB,CDISC-TEST-005,226,211,LDL,LDL Cholesterol,LIPIDS,2.55,mmol/L,,,2.55,2.55,mmol/L,,,,22748-8,SERUM,,,FOLLOW-UP,2900,END OF TRIAL,2019-09-30,213
CDISC-TEST,LB,CDISC-TEST-005,227,187,PLAT,Platelets,HAEMATOLOGY,241.17,10^9/L,,,241.17,241.17,10^9/L,,,,26515-7,BLOOD,,,SCREENING,100,VISIT 1 (WEEK -2),2019-02-15,-15
CDISC-TEST,LB,CDISC-TEST-005,228,198,PLAT,Platelets,HAEMATOLOGY,195.09,10^9/L,,,195.09,195.09,10^9/L,,,,26515-7,BLOOD,,,TREATMENT,200,VISIT 2 (WEEK 0),2019-03-02,1
CDISC-TEST,LB,CDISC-TEST-005,229,223,PLAT,Platelets,HAEMATOLOGY,149.09,10^9/L,,,149.09,149.09,10^9/L,,,,26515-7,BLOOD,,,TREATMENT,2200,VISIT 22 (WEEK 20),2019-07-20,141
CDISC-TEST,LB,CDISC-TEST-005,230,210,PLAT,Platelets,HAEMATOLOGY,244.77,10^9/L,,,244.77,244.77,10^9/L,,,,26515-7,BLOOD,,,FOLLOW-UP,2900,END OF TRIAL,2019-09-30,213
CDISC-TEST,LB,CDISC-TEST-006,231,241,ALB,Albumin,BIOCHEMISTRY,4.15,g/dL,,,4.15,4.15,g/dL,,,,1751-7,SERUM,,,SCREENING,100,VISIT 1 (WEEK -2),2019-02-03,-15
CDISC-TEST,LB,CDISC-TEST-006,232,251,ALB,Albumin,BIOCHEMISTRY,3.85,g/dL,,,3.85,3.85,g/dL,,,,1751-7,SERUM,,,TREATMENT,200,VISIT 2 (WEEK 0),2019-02-18,1
CDISC-TEST,LB,CDISC-TEST-006,233,261,ALB,Albumin,BIOCHEMISTRY,3.97,g/dL,,,3.97,3.97,g/dL,,,,1751-7,SERUM,,,TREATMENT,2200,VISIT 22 (WEEK 20),2019-07-08,141
CDISC-TEST,LB,CDISC-TEST-006,234,276,ALB,Albumin,BIOCHEMISTRY,3.86,g/dL,,,3.86,3.86,g/dL,,,,1751-7,SERUM,,,FOLLOW-UP,2900,END OF TRIAL,2019-09-18,213
CDISC-TEST,LB,CDISC-TEST-006,235,238,ALT,Alanine Aminotransferase,BIOCHEMISTRY,30.71,U/L,,,30.71,30.71,U/L,,,,1742-6,SERUM,,,SCREENING,100,VISIT 1 (WEEK -2),2019-02-03,-15
CDISC-TEST,LB,CDISC-TEST-006,236,248,ALT,Alanine Aminotransferase,BIOCHEMISTRY,12.7,U/L,,,12.7,12.7,U/L,,,,1742-6,SERUM,,,TREATMENT,200,VISIT 2 (WEEK 0),2019-02-18,1
CDISC-TEST,LB,CDISC-TEST-006,237,258,ALT,Alanine Aminotransferase,BIOCHEMISTRY,31.97,U/L,,,31.97,31.97,U/L,,,,1742-6,SERUM,,,TREATMENT,2200,VISIT 22 (WEEK 20),2019-07-08,141
CDISC-TEST,LB,CDISC-TEST-006,238,273,ALT,Alanine Aminotransferase,BIOCHEMISTRY,19,U/L,,,19,19,U/L,,,,1742-6,SERUM,,,FOLLOW-UP,2900,END OF TRIAL,2019-09-18,213
CDISC-TEST,LB,CDISC-TEST-006,239,234,CHOL,Cholesterol,LIPIDS,2.55,mmol/L,,,2.55,2.55,mmol/L,,,,2093-3,SERUM,,,SCREENING,100,VISIT 1 (WEEK -2),2019-02-03,-15
CDISC-TEST,LB,CDISC-TEST-006,240,244,CHOL,Cholesterol,LIPIDS,4.75,mmol/L,,,4.75,4.75,mmol/L,,,,2093-3,SERUM,,,TREATMENT,200,VISIT 2 (WEEK 0),2019-02-18,1
CDISC-TEST,LB,CDISC-TEST-006,241,254,CHOL,Cholesterol,LIPIDS,4.91,mmol/L,,,4.91,4.91,mmol/L,,,,2093-3,SERUM,,,TREATMENT,2200,VISIT 22 (WEEK 20),2019-07-08,141
CDISC-TEST,LB,CDISC-TEST-006,242,269,CHOL,Cholesterol,LIPIDS,2.29,mmol/L,,,2.29,2.29,mmol/L,,,,2093-3,SERUM,,,FOLLOW-UP,2900,END OF TRIAL,2019-09-18,213
CDISC-TEST,LB,CDISC-TEST-006,243,233,CREAT,Creatinine,BIOCHEMISTRY,115.9,umol/L,,,115.9,115.9,umol/L,,,,14682-9,SERUM,,,SCREENING,100,VISIT 1 (WEEK -2),2019-02-03,-15
CDISC-TEST,LB,CDISC-TEST-006,244,242,CREAT,Creatinine,BIOCHEMISTRY,129.05,umol/L,,,129.05,129.05,umol/L,,,,14682-9,SERUM,,,TREATMENT,200,VISIT 2 (WEEK 0),2019-02-18,1
CDISC-TEST,LB,CDISC-TEST-006,245,252,CREAT,Creatinine,BIOCHEMISTRY,91.16,umol/L,,,91.16,91.16,umol/L,,,,14682-9,SERUM,,,TREATMENT,2200,VISIT 22 (WEEK 20),2019-07-08,141
CDISC-TEST,LB,CDISC-TEST-006,246,267,CREAT,Creatinine,BIOCHEMISTRY,192.1,umol/L,,,192.1,192.1,umol/L,,,,14682-9,SERUM,,,FOLLOW-UP,2900,END OF TRIAL,2019-09-18,213
CDISC-TEST,LB,CDISC-TEST-006,247,243,HBA1CHGB,Hemoglobin A1C/Hemoglobin,GLUCOSE METABOLISM,67.09,mmol/mol,,,67.09,67.09,mmol/mol,,,,59261-8,BLOOD,,,TREATMENT,200,VISIT 2 (WEEK 0),2019-02-18,1
CDISC-TEST,LB,CDISC-TEST-006,248,232,HBA1CHGB,Hemoglobin A1C/Hemoglobin,GLUCOSE METABOLISM,42.34,mmol/mol,,,42.34,42.34,mmol/mol,,,,59261-8,BLOOD,,,TREATMENT,300,VISIT 3 (WEEK 1),2019-02-25,8
CDISC-TEST,LB,CDISC-TEST-006,249,265,HBA1CHGB,Hemoglobin A1C/Hemoglobin,GLUCOSE METABOLISM,96.95,mmol/mol,,,96.95,96.95,mmol/mol,,,,59261-8,BLOOD,,,TREATMENT,900,VISIT 9 (WEEK 7),2019-04-08,50
CDISC-TEST,LB,CDISC-TEST-006,250,231,HBA1CHGB,Hemoglobin A1C/Hemoglobin,GLUCOSE METABOLISM,52.25,mmol/mol,,,52.25,52.25,mmol/mol,,,,59261-8,BLOOD,,,TREATMENT,1400,VISIT 14 (WEEK 12),2019-05-13,85
CDISC-TEST,LB,CDISC-TEST-006,251,266,HBA1CHGB,Hemoglobin A1C/Hemoglobin,GLUCOSE METABOLISM,48.37,mmol/mol,,,48.37,48.37,mmol/mol,,,,59261-8,BLOOD,,,TREATMENT,1900,VISIT 19 (WEEK 17),2019-06-17,120
CDISC-TEST,LB,CDISC-TEST-006,252,263,HBA1CHGB,Hemoglobin A1C/Hemoglobin,GLUCOSE METABOLISM,87.95,mmol/mol,,,87.95,87.95,mmol/mol,,,,59261-8,BLOOD,,,TREATMENT,2000,VISIT 20 (WEEK 18),2019-06-24,127
CDISC-TEST,LB,CDISC-TEST-006,253,262,HBA1CHGB,Hemoglobin A1C/Hemoglobin,GLUCOSE METABOLISM,76.73,mmol/mol,,,76.73,76.73,mmol/mol,,,,59261-8,BLOOD,,,TREATMENT,2100,VISIT 21 (WEEK 19),2019-07-01,134
CDISC-TEST,LB,CDISC-TEST-006,254,253,HBA1CHGB,Hemoglobin A1C/Hemoglobin,GLUCOSE METABOLISM,74.2,mmol/mol,,,74.2,74.2,mmol/mol,,,,59261-8,BLOOD,,,TREATMENT,2200,VISIT 22 (WEEK 20),2019-07-08,141
CDISC-TEST,LB,CDISC-TEST-006,255,264,HBA1CHGB,Hemoglobin A1C/Hemoglobin,GLUCOSE METABOLISM,49.53,mmol/mol,,,49.53,49.53,mmol/mol,,,,59261-8,BLOOD,,,TREATMENT,2800,VISIT 28 (WEEK 26),2019-08-19,183
CDISC-TEST,LB,CDISC-TEST-006,256,268,HBA1CHGB,Hemoglobin A1C/Hemoglobin,GLUCOSE METABOLISM,59.34,mmol/mol,,,59.34,59.34,mmol/mol,,,,59261-8,BLOOD,,,FOLLOW-UP,2900,END OF TRIAL,2019-09-18,213
CDISC-TEST,LB,CDISC-TEST-006,257,240,HCT,Hematocrit,HAEMATOLOGY,42.96,%,,,42.96,42.96,%,,,,20570-8,BLOOD,,,SCREENING,100,VISIT 1 (WEEK -2),2019-02-03,-15
CDISC-TEST,LB,CDISC-TEST-006,258,250,HCT,Hematocrit,HAEMATOLOGY,39.13,%,,,39.13,39.13,%,,,,20570-8,BLOOD,,,TREATMENT,200,VISIT 2 (WEEK 0),2019-02-18,1
CDISC-TEST,LB,CDISC-TEST-006,259,260,HCT,Hematocrit,HAEMATOLOGY,40.44,%,,,40.44,40.44,%,,,,20570-8,BLOOD,,,TREATMENT,2200,VISIT 22 (WEEK 20),2019-07-08,141
CDISC-TEST,LB,CDISC-TEST-006,260,275,HCT,Hematocrit,HAEMATOLOGY,43.34,%,,,43.34,43.34,%,,,,20570-8,BLOOD,,,FOLLOW-UP,2900,END OF TRIAL,2019-09-18,213
CDISC-TEST,LB,CDISC-TEST-006,261,239,HDL,HDL Cholesterol,LIPIDS,0.6,mmol/L,,,0.6,0.6,mmol/L,,,,14646-4,SERUM,,,SCREENING,100,VISIT 1 (WEEK -2),2019-02-03,-15
CDISC-TEST,LB,CDISC-TEST-006,262,249,HDL,HDL Cholesterol,LIPIDS,1.42,mmol/L,,,1.42,1.42,mmol/L,,,,14646-4,SERUM,,,TREATMENT,200,VISIT 2 (WEEK 0),2019-02-18,1
CDISC-TEST,LB,CDISC-TEST-006,263,259,HDL,HDL Cholesterol,LIPIDS,0.9,mmol/L,,,0.9,0.9,mmol/L,,,,14646-4,SERUM,,,TREATMENT,2200,VISIT 22 (WEEK 20),2019-07-08,141
CDISC-TEST,LB,CDISC-TEST-006,264,274,HDL,HDL Cholesterol,LIPIDS,1.3,mmol/L,,,1.3,1.3,mmol/L,,,,14646-4,SERUM,,,FOLLOW-UP,2900,END OF TRIAL,2019-09-18,213
CDISC-TEST,LB,CDISC-TEST-006,265,237,HGB,Hemoglobin,HAEMATOLOGY,8.47,mmol/L,,,8.47,8.47,mmol/L,,,,718-7,BLOOD,,,SCREENING,100,VISIT 1 (WEEK -2),2019-02-03,-15
CDISC-TEST,LB,CDISC-TEST-006,266,247,HGB,Hemoglobin,HAEMATOLOGY,7.5,mmol/L,,,7.5,7.5,mmol/L,,,,718-7,BLOOD,,,TREATMENT,200,VISIT 2 (WEEK 0),2019-02-18,1
CDISC-TEST,LB,CDISC-TEST-006,267,257,HGB,Hemoglobin,HAEMATOLOGY,9.85,mmol/L,,,9.85,9.85,mmol/L,,,,718-7,BLOOD,,,TREATMENT,2200,VISIT 22 (WEEK 20),2019-07-08,141
CDISC-TEST,LB,CDISC-TEST-006,268,272,HGB,Hemoglobin,HAEMATOLOGY,8.43,mmol/L,,,8.43,8.43,mmol/L,,,,718-7,BLOOD,,,FOLLOW-UP,2900,END OF TRIAL,2019-09-18,213
CDISC-TEST,LB,CDISC-TEST-006,269,236,LDL,LDL Cholesterol,LIPIDS,2.11,mmol/L,,,2.11,2.11,mmol/L,,,,22748-8,SERUM,,,SCREENING,100,VISIT 1 (WEEK -2),2019-02-03,-15
CDISC-TEST,LB,CDISC-TEST-006,270,246,LDL,LDL Cholesterol,LIPIDS,1.91,mmol/L,,,1.91,1.91,mmol/L,,,,22748-8,SERUM,,,TREATMENT,200,VISIT 2 (WEEK 0),2019-02-18,1
CDISC-TEST,LB,CDISC-TEST-006,271,256,LDL,LDL Cholesterol,LIPIDS,2.67,mmol/L,,,2.67,2.67,mmol/L,,,,22748-8,SERUM,,,TREATMENT,2200,VISIT 22 (WEEK 20),2019-07-08,141
CDISC-TEST,LB,CDISC-TEST-006,272,271,LDL,LDL Cholesterol,LIPIDS,4.12,mmol/L,,,4.12,4.12,mmol/L,,,,22748-8,SERUM,,,FOLLOW-UP,2900,END OF TRIAL,2019-09-18,213
CDISC-TEST,LB,CDISC-TEST-006,273,235,PLAT,Platelets,HAEMATOLOGY,385.8,10^9/L,,,385.8,385.8,10^9/L,,,,26515-7,BLOOD,,,SCREENING,100,VISIT 1 (WEEK -2),2019-02-03,-15
CDISC-TEST,LB,CDISC-TEST-006,274,245,PLAT,Platelets,HAEMATOLOGY,249.24,10^9/L,,,249.24,249.24,10^9/L,,,,26515-7,BLOOD,,,TREATMENT,200,VISIT 2 (WEEK 0),2019-02-18,1
CDISC-TEST,LB,CDISC-TEST-006,275,255,PLAT,Platelets,HAEMATOLOGY,305.14,10^9/L,,,305.14,305.14,10^9/L,,,,26515-7,BLOOD,,,TREATMENT,2200,VISIT 22 (WEEK 20),2019-07-08,141
CDISC-TEST,LB,CDISC-TEST-006,276,270,PLAT,Platelets,HAEMATOLOGY,227.88,10^9/L,,,227.88,227.88,10^9/L,,,,26515-7,BLOOD,,,FOLLOW-UP,2900,END OF TRIAL,2019-09-18,213
CDISC-TEST,LB,CDISC-TEST-007,277,286,ALB,Albumin,BIOCHEMISTRY,3.93,g/dL,,,3.93,3.93,g/dL,,,,1751-7,SERUM,,,SCREENING,100,VISIT 1 (WEEK -2),2019-02-10,-15
CDISC-TEST,LB,CDISC-TEST-007,278,296,ALB,Albumin,BIOCHEMISTRY,4.18,g/dL,,,4.18,4.18,g/dL,,,,1751-7,SERUM,,,TREATMENT,200,VISIT 2 (WEEK 0),2019-02-25,1
CDISC-TEST,LB,CDISC-TEST-007,279,322,ALB,Albumin,BIOCHEMISTRY,4.02,g/dL,,,4.02,4.02,g/dL,,,,1751-7,SERUM,,,TREATMENT,2200,VISIT 22 (WEEK 20),2019-07-15,141
CDISC-TEST,LB,CDISC-TEST-007,280,307,ALB,Albumin,BIOCHEMISTRY,3.6,g/dL,,,3.6,3.6,g/dL,,,,1751-7,SERUM,,,FOLLOW-UP,2900,END OF TRIAL,2019-09-25,213
CDISC-TEST,LB,CDISC-TEST-007,281,283,ALT,Alanine Aminotransferase,BIOCHEMISTRY,23.55,U/L,,,23.55,23.55,U/L,,,,1742-6,SERUM,,,SCREENING,100,VISIT 1 (WEEK -2),2019-02-10,-15
CDISC-TEST,LB,CDISC-TEST-007,282,293,ALT,Alanine Aminotransferase,BIOCHEMISTRY,33.88,U/L,,,33.88,33.88,U/L,,,,1742-6,SERUM,,,TREATMENT,200,VISIT 2 (WEEK 0),2019-02-25,1
CDISC-TEST,LB,CDISC-TEST-007,283,319,ALT,Alanine Aminotransferase,BIOCHEMISTRY,8.97,U/L,,,8.97,8.97,U/L,,,,1742-6,SERUM,,,TREATMENT,2200,VISIT 22 (WEEK 20),2019-07-15,141
CDISC-TEST,LB,CDISC-TEST-007,284,304,ALT,Alanine Aminotransferase,BIOCHEMISTRY,15.74,U/L,,,15.74,15.74,U/L,,,,1742-6,SERUM,,,FOLLOW-UP,2900,END OF TRIAL,2019-09-25,213
CDISC-TEST,LB,CDISC-TEST-007,285,279,CHOL,Cholesterol,LIPIDS,3.6,mmol/L,,,3.6,3.6,mmol/L,,,,2093-3,SERUM,,,SCREENING,100,VISIT 1 (WEEK -2),2019-02-10,-15
CDISC-TEST,LB,CDISC-TEST-007,286,289,CHOL,Cholesterol,LIPIDS,5.35,mmol/L,,,5.35,5.35,mmol/L,,,,2093-3,SERUM,,,TREATMENT,200,VISIT 2 (WEEK 0),2019-02-25,1
CDISC-TEST,LB,CDISC-TEST-007,287,315,CHOL,Cholesterol,LIPIDS,6.62,mmol/L,,,6.62,6.62,mmol/L,,,,2093-3,SERUM,,,TREATMENT,2200,VISIT 22 (WEEK 20),2019-07-15,141
CDISC-TEST,LB,CDISC-TEST-007,288,300,CHOL,Cholesterol,LIPIDS,4.44,mmol/L,,,4.44,4.44,mmol/L,,,,2093-3,SERUM,,,FOLLOW-UP,2900,END OF TRIAL,2019-09-25,213
CDISC-TEST,LB,CDISC-TEST-007,289,278,CREAT,Creatinine,BIOCHEMISTRY,98.72,umol/L,,,98.72,98.72,umol/L,,,,14682-9,SERUM,,,SCREENING,100,VISIT 1 (WEEK -2),2019-02-10,-15
CDISC-TEST,LB,CDISC-TEST-007,290,287,CREAT,Creatinine,BIOCHEMISTRY,14.85,umol/L,,,14.85,14.85,umol/L,,,,14682-9,SERUM,,,TREATMENT,200,VISIT 2 (WEEK 0),2019-02-25,1
CDISC-TEST,LB,CDISC-TEST-007,291,313,CREAT,Creatinine,BIOCHEMISTRY,127.01,umol/L,,,127.01,127.01,umol/L,,,,14682-9,SERUM,,,TREATMENT,2200,VISIT 22 (WEEK 20),2019-07-15,141
CDISC-TEST,LB,CDISC-TEST-007,292,298,CREAT,Creatinine,BIOCHEMISTRY,144.69,umol/L,,,144.69,144.69,umol/L,,,,14682-9,SERUM,,,FOLLOW-UP,2900,END OF TRIAL,2019-09-25,213
CDISC-TEST,LB,CDISC-TEST-007,293,288,HBA1CHGB,Hemoglobin A1C/Hemoglobin,GLUCOSE METABOLISM,81.57,mmol/mol,,,81.57,81.56999999999998,mmol/mol,,,,59261-8,BLOOD,,,TREATMENT,200,VISIT 2 (WEEK 0),2019-02-25,1
CDISC-TEST,LB,CDISC-TEST-007,294,277,HBA1CHGB,Hemoglobin A1C/Hemoglobin,GLUCOSE METABOLISM,63.28,mmol/mol,,,63.28,63.28,mmol/mol,,,,59261-8,BLOOD,,,TREATMENT,300,VISIT 3 (WEEK 1),2019-03-04,8
CDISC-TEST,LB,CDISC-TEST-007,295,312,HBA1CHGB,Hemoglobin A1C/Hemoglobin,GLUCOSE METABOLISM,69.35,mmol/mol,,,69.35,69.35,mmol/mol,,,,59261-8,BLOOD,,,TREATMENT,900,VISIT 9 (WEEK 7),2019-04-15,50
CDISC-TEST,LB,CDISC-TEST-007,296,309,HBA1CHGB,Hemoglobin A1C/Hemoglobin,GLUCOSE METABOLISM,64.01,mmol/mol,,,64.01,64.01,mmol/mol,,,,59261-8,BLOOD,,,TREATMENT,1400,VISIT 14 (WEEK 12),2019-05-20,85
CDISC-TEST,LB,CDISC-TEST-007,297,310,HBA1CHGB,Hemoglobin A1C/Hemoglobin,GLUCOSE METABOLISM,89.39,mmol/mol,,,89.39,89.39,mmol/mol,,,,59261-8,BLOOD,,,TREATMENT,1900,VISIT 19 (WEEK 17),2019-06-24,120
CDISC-TEST,LB,CDISC-TEST-007,298,308,HBA1CHGB,Hemoglobin A1C/Hemoglobin,GLUCOSE METABOLISM,70.05,mmol/mol,,,70.05,70.05,mmol/mol,,,,59261-8,BLOOD,,,TREATMENT,2000,VISIT 20 (WEEK 18),2019-07-01,127
CDISC-TEST,LB,CDISC-TEST-007,299,297,HBA1CHGB,Hemoglobin A1C/Hemoglobin,GLUCOSE METABOLISM,85.74,mmol/mol,,,85.74,85.74,mmol/mol,,,,59261-8,BLOOD,,,TREATMENT,2100,VISIT 21 (WEEK 19),2019-07-08,134
CDISC-TEST,LB,CDISC-TEST-007,300,314,HBA1CHGB,Hemoglobin A1C/Hemoglobin,GLUCOSE METABOLISM,68.89,mmol/mol,,,68.89,68.89,mmol/mol,,,,59261-8,BLOOD,,,TREATMENT,2200,VISIT 22 (WEEK 20),2019-07-15,141
CDISC-TEST,LB,CDISC-TEST-007,301,311,HBA1CHGB,Hemoglobin A1C/Hemoglobin,GLUCOSE METABOLISM,56.18,mmol/mol,,,56.18,56.18,mmol/mol,,,,59261-8,BLOOD,,,TREATMENT,2800,VISIT 28 (WEEK 26),2019-08-26,183
CDISC-TEST,LB,CDISC-TEST-007,302,299,HBA1CHGB,Hemoglobin A1C/Hemoglobin,GLUCOSE METABOLISM,56.95,mmol/mol,,,56.95,56.95,mmol/mol,,,,59261-8,BLOOD,,,FOLLOW-UP,2900,END OF TRIAL,2019-09-25,213
CDISC-TEST,LB,CDISC-TEST-007,303,285,HCT,Hematocrit,HAEMATOLOGY,46.07,%,,,46.07,46.07,%,,,,20570-8,BLOOD,,,SCREENING,100,VISIT 1 (WEEK -2),2019-02-10,-15
CDISC-TEST,LB,CDISC-TEST-007,304,295,HCT,Hematocrit,HAEMATOLOGY,38.8,%,,,38.8,38.8,%,,,,20570-8,BLOOD,,,TREATMENT,200,VISIT 2 (WEEK 0),2019-02-25,1
CDISC-TEST,LB,CDISC-TEST-007,305,321,HCT,Hematocrit,HAEMATOLOGY,42.82,%,,,42.82,42.82,%,,,,20570-8,BLOOD,,,TREATMENT,2200,VISIT 22 (WEEK 20),2019-07-15,141
CDISC-TEST,LB,CDISC-TEST-007,306,306,HCT,Hematocrit,HAEMATOLOGY,36.7,%,,,36.7,36.7,%,,,,20570-8,BLOOD,,,FOLLOW-UP,2900,END OF TRIAL,2019-09-25,213
CDISC-TEST,LB,CDISC-TEST-007,307,284,HDL,HDL Cholesterol,LIPIDS,1.26,mmol/L,,,1.26,1.26,mmol/L,,,,14646-4,SERUM,,,SCREENING,100,VISIT 1 (WEEK -2),2019-02-10,-15
CDISC-TEST,LB,CDISC-TEST-007,308,294,HDL,HDL Cholesterol,LIPIDS,1.05,mmol/L,,,1.05,1.05,mmol/L,,,,14646-4,SERUM,,,TREATMENT,200,VISIT 2 (WEEK 0),2019-02-25,1
CDISC-TEST,LB,CDISC-TEST-007,309,320,HDL,HDL Cholesterol,LIPIDS,1.1,mmol/L,,,1.1,1.1,mmol/L,,,,14646-4,SERUM,,,TREATMENT,2200,VISIT 22 (WEEK 20),2019-07-15,141
CDISC-TEST,LB,CDISC-TEST-007,310,305,HDL,HDL Cholesterol,LIPIDS,1.2,mmol/L,,,1.2,1.2,mmol/L,,,,14646-4,SERUM,,,FOLLOW-UP,2900,END OF TRIAL,2019-09-25,213
CDISC-TEST,LB,CDISC-TEST-007,311,282,HGB,Hemoglobin,HAEMATOLOGY,8.43,mmol/L,,,8.43,8.43,mmol/L,,,,718-7,BLOOD,,,SCREENING,100,VISIT 1 (WEEK -2),2019-02-10,-15
CDISC-TEST,LB,CDISC-TEST-007,312,292,HGB,Hemoglobin,HAEMATOLOGY,9.76,mmol/L,,,9.76,9.76,mmol/L,,,,718-7,BLOOD,,,TREATMENT,200,VISIT 2 (WEEK 0),2019-02-25,1
CDISC-TEST,LB,CDISC-TEST-007,313,318,HGB,Hemoglobin,HAEMATOLOGY,7.31,mmol/L,,,7.31,7.31,mmol/L,,,,718-7,BLOOD,,,TREATMENT,2200,VISIT 22 (WEEK 20),2019-07-15,141
CDISC-TEST,LB,CDISC-TEST-007,314,303,HGB,Hemoglobin,HAEMATOLOGY,9.21,mmol/L,,,9.21,9.21,mmol/L,,,,718-7,BLOOD,,,FOLLOW-UP,2900,END OF TRIAL,2019-09-25,213
CDISC-TEST,LB,CDISC-TEST-007,315,281,LDL,LDL Cholesterol,LIPIDS,2.35,mmol/L,,,2.35,2.35,mmol/L,,,,22748-8,SERUM,,,SCREENING,100,VISIT 1 (WEEK -2),2019-02-10,-15
CDISC-TEST,LB,CDISC-TEST-007,316,291,LDL,LDL Cholesterol,LIPIDS,4.57,mmol/L,,,4.57,4.57,mmol/L,,,,22748-8,SERUM,,,TREATMENT,200,VISIT 2 (WEEK 0),2019-02-25,1
CDISC-TEST,LB,CDISC-TEST-007,317,317,LDL,LDL Cholesterol,LIPIDS,1.41,mmol/L,,,1.41,1.41,mmol/L,,,,22748-8,SERUM,,,TREATMENT,2200,VISIT 22 (WEEK 20),2019-07-15,141
CDISC-TEST,LB,CDISC-TEST-007,318,302,LDL,LDL Cholesterol,LIPIDS,2.07,mmol/L,,,2.07,2.07,mmol/L,,,,22748-8,SERUM,,,FOLLOW-UP,2900,END OF TRIAL,2019-09-25,213
CDISC-TEST,LB,CDISC-TEST-007,319,280,PLAT,Platelets,HAEMATOLOGY,264.25,10^9/L,,,264.25,264.25,10^9/L,,,,26515-7,BLOOD,,,SCREENING,100,VISIT 1 (WEEK -2),2019-02-10,-15
CDISC-TEST,LB,CDISC-TEST-007,320,290,PLAT,Platelets,HAEMATOLOGY,192.76,10^9/L,,,192.76,192.76,10^9/L,,,,26515-7,BLOOD,,,TREATMENT,200,VISIT 2 (WEEK 0),2019-02-25,1
CDISC-TEST,LB,CDISC-TEST-007,321,316,PLAT,Platelets,HAEMATOLOGY,245.63,10^9/L,,,245.63,245.63,10^9/L,,,,26515-7,BLOOD,,,TREATMENT,2200,VISIT 22 (WEEK 20),2019-07-15,141
CDISC-TEST,LB,CDISC-TEST-007,322,301,PLAT,Platelets,HAEMATOLOGY,193.41,10^9/L,,,193.41,193.41,10^9/L,,,,26515-7,BLOOD,,,FOLLOW-UP,2900,END OF TRIAL,2019-09-25,213
CDISC-TEST,LB,CDISC-TEST-008,323,332,ALB,Albumin,BIOCHEMISTRY,4.45,g/dL,,,4.45,4.45,g/dL,,,,1751-7,SERUM,,,SCREENING,100,VISIT 1 (WEEK -2),2019-01-22,-15
CDISC-TEST,LB,CDISC-TEST-008,324,342,ALB,Albumin,BIOCHEMISTRY,3.84,g/dL,,,3.84,3.84,g/dL,,,,1751-7,SERUM,,,TREATMENT,200,VISIT 2 (WEEK 0),2019-02-06,1
CDISC-TEST,LB,CDISC-TEST-008,325,366,ALB,Albumin,BIOCHEMISTRY,3.59,g/dL,,,3.59,3.59,g/dL,,,,1751-7,SERUM,,,TREATMENT,2200,VISIT 22 (WEEK 20),2019-06-26,141
CDISC-TEST,LB,CDISC-TEST-008,326,355,ALB,Albumin,BIOCHEMISTRY,4.37,g/dL,,,4.37,4.37,g/dL,,,,1751-7,SERUM,,,FOLLOW-UP,2900,END OF TRIAL,2019-09-06,213
CDISC-TEST,LB,CDISC-TEST-008,327,329,ALT,Alanine Aminotransferase,BIOCHEMISTRY,27.66,U/L,,,27.66,27.66,U/L,,,,1742-6,SERUM,,,SCREENING,100,VISIT 1 (WEEK -2),2019-01-22,-15
CDISC-TEST,LB,CDISC-TEST-008,328,339,ALT,Alanine Aminotransferase,BIOCHEMISTRY,21.59,U/L,,,21.59,21.59,U/L,,,,1742-6,SERUM,,,TREATMENT,200,VISIT 2 (WEEK 0),2019-02-06,1
CDISC-TEST,LB,CDISC-TEST-008,329,363,ALT,Alanine Aminotransferase,BIOCHEMISTRY,37.03,U/L,,,37.03,37.03,U/L,,,,1742-6,SERUM,,,TREATMENT,2200,VISIT 22 (WEEK 20),2019-06-26,141
CDISC-TEST,LB,CDISC-TEST-008,330,352,ALT,Alanine Aminotransferase,BIOCHEMISTRY,24.64,U/L,,,24.64,24.64,U/L,,,,1742-6,SERUM,,,FOLLOW-UP,2900,END OF TRIAL,2019-09-06,213
CDISC-TEST,LB,CDISC-TEST-008,331,325,CHOL,Cholesterol,LIPIDS,3.51,mmol/L,,,3.51,3.51,mmol/L,,,,2093-3,SERUM,,,SCREENING,100,VISIT 1 (WEEK -2),2019-01-22,-15
CDISC-TEST,LB,CDISC-TEST-008,332,335,CHOL,Cholesterol,LIPIDS,5.31,mmol/L,,,5.31,5.31,mmol/L,,,,2093-3,SERUM,,,TREATMENT,200,VISIT 2 (WEEK 0),2019-02-06,1
CDISC-TEST,LB,CDISC-TEST-008,333,359,CHOL,Cholesterol,LIPIDS,1.19,mmol/L,,,1.19,1.19,mmol/L,,,,2093-3,SERUM,,,TREATMENT,2200,VISIT 22 (WEEK 20),2019-06-26,141
CDISC-TEST,LB,CDISC-TEST-008,334,348,CHOL,Cholesterol,LIPIDS,5.21,mmol/L,,,5.21,5.21,mmol/L,,,,2093-3,SERUM,,,FOLLOW-UP,2900,END OF TRIAL,2019-09-06,213
CDISC-TEST,LB,CDISC-TEST-008,335,324,CREAT,Creatinine,BIOCHEMISTRY,100.45,umol/L,,,100.45,100.45,umol/L,,,,14682-9,SERUM,,,SCREENING,100,VISIT 1 (WEEK -2),2019-01-22,-15
CDISC-TEST,LB,CDISC-TEST-008,336,333,CREAT,Creatinine,BIOCHEMISTRY,56.66,umol/L,,,56.66,56.66,umol/L,,,,14682-9,SERUM,,,TREATMENT,200,VISIT 2 (WEEK 0),2019-02-06,1
CDISC-TEST,LB,CDISC-TEST-008,337,357,CREAT,Creatinine,BIOCHEMISTRY,95.84,umol/L,,,95.84,95.84,umol/L,,,,14682-9,SERUM,,,TREATMENT,2200,VISIT 22 (WEEK 20),2019-06-26,141
CDISC-TEST,LB,CDISC-TEST-008,338,346,CREAT,Creatinine,BIOCHEMISTRY,246.28,umol/L,,,246.28,246.28,umol/L,,,,14682-9,SERUM,,,FOLLOW-UP,2900,END OF TRIAL,2019-09-06,213
CDISC-TEST,LB,CDISC-TEST-008,339,334,HBA1CHGB,Hemoglobin A1C/Hemoglobin,GLUCOSE METABOLISM,106.7,mmol/mol,,,106.7,106.7,mmol/mol,,,,59261-8,BLOOD,,,TREATMENT,200,VISIT 2 (WEEK 0),2019-02-06,1
CDISC-TEST,LB,CDISC-TEST-008,340,323,HBA1CHGB,Hemoglobin A1C/Hemoglobin,GLUCOSE METABOLISM,98.84,mmol/mol,,,98.84,98.84,mmol/mol,,,,59261-8,BLOOD,,,TREATMENT,300,VISIT 3 (WEEK 1),2019-02-13,8
CDISC-TEST,LB,CDISC-TEST-008,341,344,HBA1CHGB,Hemoglobin A1C/Hemoglobin,GLUCOSE METABOLISM,62.95,mmol/mol,,,62.95,62.95,mmol/mol,,,,59261-8,BLOOD,,,TREATMENT,900,VISIT 9 (WEEK 7),2019-03-27,50
CDISC-TEST,LB,CDISC-TEST-008,342,368,HBA1CHGB,Hemoglobin A1C/Hemoglobin,GLUCOSE METABOLISM,57.4,mmol/mol,,,57.4,57.4,mmol/mol,,,,59261-8,BLOOD,,,TREATMENT,1400,VISIT 14 (WEEK 12),2019-05-01,85
CDISC-TEST,LB,CDISC-TEST-008,343,356,HBA1CHGB,Hemoglobin A1C/Hemoglobin,GLUCOSE METABOLISM,40.51,mmol/mol,,,40.51,40.51,mmol/mol,,,,59261-8,BLOOD,,,TREATMENT,1900,VISIT 19 (WEEK 17),2019-06-05,120
CDISC-TEST,LB,CDISC-TEST-008,344,345,HBA1CHGB,Hemoglobin A1C/Hemoglobin,GLUCOSE METABOLISM,56.91,mmol/mol,,,56.91,56.91,mmol/mol,,,,59261-8,BLOOD,,,TREATMENT,2000,VISIT 20 (WEEK 18),2019-06-12,127
CDISC-TEST,LB,CDISC-TEST-008,345,367,HBA1CHGB,Hemoglobin A1C/Hemoglobin,GLUCOSE METABOLISM,77.17,mmol/mol,,,77.17,77.17,mmol/mol,,,,59261-8,BLOOD,,,TREATMENT,2100,VISIT 21 (WEEK 19),2019-06-19,134
CDISC-TEST,LB,CDISC-TEST-008,346,358,HBA1CHGB,Hemoglobin A1C/Hemoglobin,GLUCOSE METABOLISM,61.92,mmol/mol,,,61.92,61.92,mmol/mol,,,,59261-8,BLOOD,,,TREATMENT,2200,VISIT 22 (WEEK 20),2019-06-26,141
CDISC-TEST,LB,CDISC-TEST-008,347,343,HBA1CHGB,Hemoglobin A1C/Hemoglobin,GLUCOSE METABOLISM,58.73,mmol/mol,,,58.73,58.73,mmol/mol,,,,59261-8,BLOOD,,,TREATMENT,2800,VISIT 28 (WEEK 26),2019-08-07,183
CDISC-TEST,LB,CDISC-TEST-008,348,347,HBA1CHGB,Hemoglobin A1C/Hemoglobin,GLUCOSE METABOLISM,71.85,mmol/mol,,,71.85,71.85,mmol/mol,,,,59261-8,BLOOD,,,FOLLOW-UP,2900,END OF TRIAL,2019-09-06,213
CDISC-TEST,LB,CDISC-TEST-008,349,331,HCT,Hematocrit,HAEMATOLOGY,36.38,%,,,36.38,36.38,%,,,,20570-8,BLOOD,,,SCREENING,100,VISIT 1 (WEEK -2),2019-01-22,-15
CDISC-TEST,LB,CDISC-TEST-008,350,341,HCT,Hematocrit,HAEMATOLOGY,35.5,%,,,35.5,35.5,%,,,,20570-8,BLOOD,,,TREATMENT,200,VISIT 2 (WEEK 0),2019-02-06,1
CDISC-TEST,LB,CDISC-TEST-008,351,365,HCT,Hematocrit,HAEMATOLOGY,47.47,%,,,47.47,47.47,%,,,,20570-8,BLOOD,,,TREATMENT,2200,VISIT 22 (WEEK 20),2019-06-26,141
CDISC-TEST,LB,CDISC-TEST-008,352,354,HCT,Hematocrit,HAEMATOLOGY,42.06,%,,,42.06,42.06,%,,,,20570-8,BLOOD,,,FOLLOW-UP,2900,END OF TRIAL,2019-09-06,213
CDISC-TEST,LB,CDISC-TEST-008,353,330,HDL,HDL Cholesterol,LIPIDS,0.74,mmol/L,,,0.74,0.74,mmol/L,,,,14646-4,SERUM,,,SCREENING,100,VISIT 1 (WEEK -2),2019-01-22,-15
CDISC-TEST,LB,CDISC-TEST-008,354,340,HDL,HDL Cholesterol,LIPIDS,1.19,mmol/L,,,1.19,1.19,mmol/L,,,,14646-4,SERUM,,,TREATMENT,200,VISIT 2 (WEEK 0),2019-02-06,1
CDISC-TEST,LB,CDISC-TEST-008,355,364,HDL,HDL Cholesterol,LIPIDS,0.69,mmol/L,,,0.69,0.69,mmol/L,,,,14646-4,SERUM,,,TREATMENT,2200,VISIT 22 (WEEK 20),2019-06-26,141
CDISC-TEST,LB,CDISC-TEST-008,356,353,HDL,HDL Cholesterol,LIPIDS,0.56,mmol/L,,,0.56,0.56,mmol/L,,,,14646-4,SERUM,,,FOLLOW-UP,2900,END OF TRIAL,2019-09-06,213
CDISC-TEST,LB,CDISC-TEST-008,357,328,HGB,Hemoglobin,HAEMATOLOGY,8.28,mmol/L,,,8.28,8.279999999999998,mmol/L,,,,718-7,BLOOD,,,SCREENING,100,VISIT 1 (WEEK -2),2019-01-22,-15
CDISC-TEST,LB,CDISC-TEST-008,358,338,HGB,Hemoglobin,HAEMATOLOGY,9.75,mmol/L,,,9.75,9.75,mmol/L,,,,718-7,BLOOD,,,TREATMENT,200,VISIT 2 (WEEK 0),2019-02-06,1
CDISC-TEST,LB,CDISC-TEST-008,359,362,HGB,Hemoglobin,HAEMATOLOGY,8.28,mmol/L,,,8.28,8.279999999999998,mmol/L,,,,718-7,BLOOD,,,TREATMENT,2200,VISIT 22 (WEEK 20),2019-06-26,141
CDISC-TEST,LB,CDISC-TEST-008,360,351,HGB,Hemoglobin,HAEMATOLOGY,8.56,mmol/L,,,8.56,8.56,mmol/L,,,,718-7,BLOOD,,,FOLLOW-UP,2900,END OF TRIAL,2019-09-06,213
CDISC-TEST,LB,CDISC-TEST-008,361,327,LDL,LDL Cholesterol,LIPIDS,2.16,mmol/L,,,2.16,2.16,mmol/L,,,,22748-8,SERUM,,,SCREENING,100,VISIT 1 (WEEK -2),2019-01-22,-15
CDISC-TEST,LB,CDISC-TEST-008,362,337,LDL,LDL Cholesterol,LIPIDS,1.69,mmol/L,,,1.69,1.69,mmol/L,,,,22748-8,SERUM,,,TREATMENT,200,VISIT 2 (WEEK 0),2019-02-06,1
CDISC-TEST,LB,CDISC-TEST-008,363,361,LDL,LDL Cholesterol,LIPIDS,0.5,mmol/L,,,0.5,0.5,mmol/L,,,,22748-8,SERUM,,,TREATMENT,2200,VISIT 22 (WEEK 20),2019-06-26,141
CDISC-TEST,LB,CDISC-TEST-008,364,350,LDL,LDL Cholesterol,LIPIDS,0.76,mmol/L,,,0.76,0.76,mmol/L,,,,22748-8,SERUM,,,FOLLOW-UP,2900,END OF TRIAL,2019-09-06,213
CDISC-TEST,LB,CDISC-TEST-008,365,326,PLAT,Platelets,HAEMATOLOGY,181.58,10^9/L,,,181.58,181.58,10^9/L,,,,26515-7,BLOOD,,,SCREENING,100,VISIT 1 (WEEK -2),2019-01-22,-15
CDISC-TEST,LB,CDISC-TEST-008,366,336,PLAT,Platelets,HAEMATOLOGY,164.73,10^9/L,,,164.73,164.73,10^9/L,,,,26515-7,BLOOD,,,TREATMENT,200,VISIT 2 (WEEK 0),2019-02-06,1
CDISC-TEST,LB,CDISC-TEST-008,367,360,PLAT,Platelets,HAEMATOLOGY,255.67,10^9/L,,,255.67,255.67,10^9/L,,,,26515-7,BLOOD,,,TREATMENT,2200,VISIT 22 (WEEK 20),2019-06-26,141
CDISC-TEST,LB,CDISC-TEST-008,368,349,PLAT,Platelets,HAEMATOLOGY,319.1,10^9/L,,,319.1,319.1,10^9/L,,,,26515-7,BLOOD,,,FOLLOW-UP,2900,END OF TRIAL,2019-09-06,213
CDISC-TEST,LB,CDISC-TEST-009,369,401,ALB,Albumin,BIOCHEMISTRY,5.05,g/dL,,,5.05,5.05,g/dL,,,,1751-7,SERUM,,,SCREENING,100,VISIT 1 (WEEK -2),2019-01-10,-15
CDISC-TEST,LB,CDISC-TEST-009,370,412,ALB,Albumin,BIOCHEMISTRY,4.06,g/dL,,,4.06,4.06,g/dL,,,,1751-7,SERUM,,,TREATMENT,200,VISIT 2 (WEEK 0),2019-01-25,1
CDISC-TEST,LB,CDISC-TEST-009,371,392,ALB,Albumin,BIOCHEMISTRY,3.95,g/dL,,,3.95,3.95,g/dL,,,,1751-7,SERUM,,,TREATMENT,2200,VISIT 22 (WEEK 20),2019-06-14,141
CDISC-TEST,LB,CDISC-TEST-009,372,381,ALB,Albumin,BIOCHEMISTRY,4.34,g/dL,,,4.34,4.34,g/dL,,,,1751-7,SERUM,,,FOLLOW-UP,2900,END OF TRIAL,2019-08-25,213
CDISC-TEST,LB,CDISC-TEST-009,373,398,ALT,Alanine Aminotransferase,BIOCHEMISTRY,12.85,U/L,,,12.85,12.85,U/L,,,,1742-6,SERUM,,,SCREENING,100,VISIT 1 (WEEK -2),2019-01-10,-15
CDISC-TEST,LB,CDISC-TEST-009,374,409,ALT,Alanine Aminotransferase,BIOCHEMISTRY,20.39,U/L,,,20.39,20.39,U/L,,,,1742-6,SERUM,,,TREATMENT,200,VISIT 2 (WEEK 0),2019-01-25,1
CDISC-TEST,LB,CDISC-TEST-009,375,389,ALT,Alanine Aminotransferase,BIOCHEMISTRY,14.79,U/L,,,14.79,14.79,U/L,,,,1742-6,SERUM,,,TREATMENT,2200,VISIT 22 (WEEK 20),2019-06-14,141
CDISC-TEST,LB,CDISC-TEST-009,376,378,ALT,Alanine Aminotransferase,BIOCHEMISTRY,43.44,U/L,,,43.44,43.44,U/L,,,,1742-6,SERUM,,,FOLLOW-UP,2900,END OF TRIAL,2019-08-25,213
CDISC-TEST,LB,CDISC-TEST-009,377,394,CHOL,Cholesterol,LIPIDS,4.93,mmol/L,,,4.93,4.93,mmol/L,,,,2093-3,SERUM,,,SCREENING,100,VISIT 1 (WEEK -2),2019-01-10,-15
CDISC-TEST,LB,CDISC-TEST-009,378,405,CHOL,Cholesterol,LIPIDS,6.14,mmol/L,,,6.14,6.14,mmol/L,,,,2093-3,SERUM,,,TREATMENT,200,VISIT 2 (WEEK 0),2019-01-25,1
CDISC-TEST,LB,CDISC-TEST-009,379,385,CHOL,Cholesterol,LIPIDS,2.7,mmol/L,,,2.7,2.7,mmol/L,,,,2093-3,SERUM,,,TREATMENT,2200,VISIT 22 (WEEK 20),2019-06-14,141
CDISC-TEST,LB,CDISC-TEST-009,380,374,CHOL,Cholesterol,LIPIDS,2.99,mmol/L,,,2.99,2.99,mmol/L,,,,2093-3,SERUM,,,FOLLOW-UP,2900,END OF TRIAL,2019-08-25,213
CDISC-TEST,LB,CDISC-TEST-009,381,393,CREAT,Creatinine,BIOCHEMISTRY,98.69,umol/L,,,98.69,98.69,umol/L,,,,14682-9,SERUM,,,SCREENING,100,VISIT 1 (WEEK -2),2019-01-10,-15
CDISC-TEST,LB,CDISC-TEST-009,382,403,CREAT,Creatinine,BIOCHEMISTRY,95.44,umol/L,,,95.44,95.44,umol/L,,,,14682-9,SERUM,,,TREATMENT,200,VISIT 2 (WEEK 0),2019-01-25,1
CDISC-TEST,LB,CDISC-TEST-009,383,383,CREAT,Creatinine,BIOCHEMISTRY,109.95,umol/L,,,109.95,109.95,umol/L,,,,14682-9,SERUM,,,TREATMENT,2200,VISIT 22 (WEEK 20),2019-06-14,141
CDISC-TEST,LB,CDISC-TEST-009,384,372,CREAT,Creatinine,BIOCHEMISTRY,42.27,umol/L,,,42.27,42.27,umol/L,,,,14682-9,SERUM,,,FOLLOW-UP,2900,END OF TRIAL,2019-08-25,213
CDISC-TEST,LB,CDISC-TEST-009,385,404,HBA1CHGB,Hemoglobin A1C/Hemoglobin,GLUCOSE METABOLISM,89.4,mmol/mol,,,89.4,89.4,mmol/mol,,,,59261-8,BLOOD,,,TREATMENT,200,VISIT 2 (WEEK 0),2019-01-25,1
CDISC-TEST,LB,CDISC-TEST-009,386,370,HBA1CHGB,Hemoglobin A1C/Hemoglobin,GLUCOSE METABOLISM,49.84,mmol/mol,,,49.84,49.84,mmol/mol,,,,59261-8,BLOOD,,,TREATMENT,300,VISIT 3 (WEEK 1),2019-02-01,8
CDISC-TEST,LB,CDISC-TEST-009,387,413,HBA1CHGB,Hemoglobin A1C/Hemoglobin,GLUCOSE METABOLISM,70.88,mmol/mol,,,70.88,70.88,mmol/mol,,,,59261-8,BLOOD,,,TREATMENT,900,VISIT 9 (WEEK 7),2019-03-15,50
CDISC-TEST,LB,CDISC-TEST-009,388,402,HBA1CHGB,Hemoglobin A1C/Hemoglobin,GLUCOSE METABOLISM,60.39,mmol/mol,,,60.39,60.39,mmol/mol,,,,59261-8,BLOOD,,,TREATMENT,1400,VISIT 14 (WEEK 12),2019-04-19,85
CDISC-TEST,LB,CDISC-TEST-009,389,382,HBA1CHGB,Hemoglobin A1C/Hemoglobin,GLUCOSE METABOLISM,65.82,mmol/mol,,,65.82,65.82,mmol/mol,,,,59261-8,BLOOD,,,TREATMENT,1900,VISIT 19 (WEEK 17),2019-05-24,120
CDISC-TEST,LB,CDISC-TEST-009,390,371,HBA1CHGB,Hemoglobin A1C/Hemoglobin,GLUCOSE METABOLISM,65.06,mmol/mol,,,65.06,65.06,mmol/mol,,,,59261-8,BLOOD,,,TREATMENT,2000,VISIT 20 (WEEK 18),2019-05-31,127
CDISC-TEST,LB,CDISC-TEST-009,391,369,HBA1CHGB,Hemoglobin A1C/Hemoglobin,GLUCOSE METABOLISM,23.35,mmol/mol,,,23.35,23.35,mmol/mol,,,,59261-8,BLOOD,,,TREATMENT,2100,VISIT 21 (WEEK 19),2019-06-07,134
CDISC-TEST,LB,CDISC-TEST-009,392,384,HBA1CHGB,Hemoglobin A1C/Hemoglobin,GLUCOSE METABOLISM,68.4,mmol/mol,,,68.4,68.4,mmol/mol,,,,59261-8,BLOOD,,,TREATMENT,2200,VISIT 22 (WEEK 20),2019-06-14,141
CDISC-TEST,LB,CDISC-TEST-009,393,414,HBA1CHGB,Hemoglobin A1C/Hemoglobin,GLUCOSE METABOLISM,93.81,mmol/mol,,,93.81,93.81,mmol/mol,,,,59261-8,BLOOD,,,TREATMENT,2800,VISIT 28 (WEEK 26),2019-07-26,183
CDISC-TEST,LB,CDISC-TEST-009,394,373,HBA1CHGB,Hemoglobin A1C/Hemoglobin,GLUCOSE METABOLISM,61.37,mmol/mol,,,61.37,61.37,mmol/mol,,,,59261-8,BLOOD,,,FOLLOW-UP,2900,END OF TRIAL,2019-08-25,213
CDISC-TEST,LB,CDISC-TEST-009,395,400,HCT,Hematocrit,HAEMATOLOGY,49.7,%,,,49.7,49.7,%,,,,20570-8,BLOOD,,,SCREENING,100,VISIT 1 (WEEK -2),2019-01-10,-15
CDISC-TEST,LB,CDISC-TEST-009,396,411,HCT,Hematocrit,HAEMATOLOGY,43.54,%,,,43.54,43.54,%,,,,20570-8,BLOOD,,,TREATMENT,200,VISIT 2 (WEEK 0),2019-01-25,1
CDISC-TEST,LB,CDISC-TEST-009,397,391,HCT,Hematocrit,HAEMATOLOGY,42.38,%,,,42.38,42.38,%,,,,20570-8,BLOOD,,,TREATMENT,2200,VISIT 22 (WEEK 20),2019-06-14,141
CDISC-TEST,LB,CDISC-TEST-009,398,380,HCT,Hematocrit,HAEMATOLOGY,44.75,%,,,44.75,44.75,%,,,,20570-8,BLOOD,,,FOLLOW-UP,2900,END OF TRIAL,2019-08-25,213
CDISC-TEST,LB,CDISC-TEST-009,399,399,HDL,HDL Cholesterol,LIPIDS,1,mmol/L,,,1,1,mmol/L,,,,14646-4,SERUM,,,SCREENING,100,VISIT 1 (WEEK -2),2019-01-10,-15
CDISC-TEST,LB,CDISC-TEST-009,400,410,HDL,HDL Cholesterol,LIPIDS,0.99,mmol/L,,,0.99,0.99,mmol/L,,,,14646-4,SERUM,,,TREATMENT,200,VISIT 2 (WEEK 0),2019-01-25,1
CDISC-TEST,LB,CDISC-TEST-009,401,390,HDL,HDL Cholesterol,LIPIDS,1.07,mmol/L,,,1.07,1.07,mmol/L,,,,14646-4,SERUM,,,TREATMENT,2200,VISIT 22 (WEEK 20),2019-06-14,141
CDISC-TEST,LB,CDISC-TEST-009,402,379,HDL,HDL Cholesterol,LIPIDS,1.29,mmol/L,,,1.29,1.29,mmol/L,,,,14646-4,SERUM,,,FOLLOW-UP,2900,END OF TRIAL,2019-08-25,213
CDISC-TEST,LB,CDISC-TEST-009,403,397,HGB,Hemoglobin,HAEMATOLOGY,9.96,mmol/L,,,9.96,9.96,mmol/L,,,,718-7,BLOOD,,,SCREENING,100,VISIT 1 (WEEK -2),2019-01-10,-15
CDISC-TEST,LB,CDISC-TEST-009,404,408,HGB,Hemoglobin,HAEMATOLOGY,6.08,mmol/L,,,6.08,6.08,mmol/L,,,,718-7,BLOOD,,,TREATMENT,200,VISIT 2 (WEEK 0),2019-01-25,1
CDISC-TEST,LB,CDISC-TEST-009,405,388,HGB,Hemoglobin,HAEMATOLOGY,7.63,mmol/L,,,7.63,7.63,mmol/L,,,,718-7,BLOOD,,,TREATMENT,2200,VISIT 22 (WEEK 20),2019-06-14,141
CDISC-TEST,LB,CDISC-TEST-009,406,377,HGB,Hemoglobin,HAEMATOLOGY,6.72,mmol/L,,,6.72,6.72,mmol/L,,,,718-7,BLOOD,,,FOLLOW-UP,2900,END OF TRIAL,2019-08-25,213
CDISC-TEST,LB,CDISC-TEST-009,407,396,LDL,LDL Cholesterol,LIPIDS,0.69,mmol/L,,,0.69,0.69,mmol/L,,,,22748-8,SERUM,,,SCREENING,100,VISIT 1 (WEEK -2),2019-01-10,-15
CDISC-TEST,LB,CDISC-TEST-009,408,407,LDL,LDL Cholesterol,LIPIDS,1,mmol/L,,,1,1,mmol/L,,,,22748-8,SERUM,,,TREATMENT,200,VISIT 2 (WEEK 0),2019-01-25,1
CDISC-TEST,LB,CDISC-TEST-009,409,387,LDL,LDL Cholesterol,LIPIDS,2.17,mmol/L,,,2.17,2.17,mmol/L,,,,22748-8,SERUM,,,TREATMENT,2200,VISIT 22 (WEEK 20),2019-06-14,141
CDISC-TEST,LB,CDISC-TEST-009,410,376,LDL,LDL Cholesterol,LIPIDS,3.21,mmol/L,,,3.21,3.21,mmol/L,,,,22748-8,SERUM,,,FOLLOW-UP,2900,END OF TRIAL,2019-08-25,213
CDISC-TEST,LB,CDISC-TEST-009,411,395,PLAT,Platelets,HAEMATOLOGY,208.06,10^9/L,,,208.06,208.06,10^9/L,,,,26515-7,BLOOD,,,SCREENING,100,VISIT 1 (WEEK -2),2019-01-10,-15
CDISC-TEST,LB,CDISC-TEST-009,412,406,PLAT,Platelets,HAEMATOLOGY,194.3,10^9/L,,,194.3,194.3,10^9/L,,,,26515-7,BLOOD,,,TREATMENT,200,VISIT 2 (WEEK 0),2019-01-25,1
CDISC-TEST,LB,CDISC-TEST-009,413,386,PLAT,Platelets,HAEMATOLOGY,190.71,10^9/L,,,190.71,190.71,10^9/L,,,,26515-7,BLOOD,,,TREATMENT,2200,VISIT 22 (WEEK 20),2019-06-14,141
CDISC-TEST,LB,CDISC-TEST-009,414,375,PLAT,Platelets,HAEMATOLOGY,144.48,10^9/L,,,144.48,144.48,10^9/L,,,,26515-7,BLOOD,,,FOLLOW-UP,2900,END OF TRIAL,2019-08-25,213
CDISC-TEST,LB,CDISC-TEST-010,415,434,ALB,Albumin,BIOCHEMISTRY,3.73,g/dL,,,3.73,3.73,g/dL,,,,1751-7,SERUM,,,SCREENING,100,VISIT 1 (WEEK -2),2019-01-07,-15
CDISC-TEST,LB,CDISC-TEST-010,416,425,ALB,Albumin,BIOCHEMISTRY,4.2,g/dL,,,4.2,4.2,g/dL,,,,1751-7,SERUM,,,TREATMENT,200,VISIT 2 (WEEK 0),2019-01-22,1
CDISC-TEST,LB,CDISC-TEST-010,417,448,ALB,Albumin,BIOCHEMISTRY,4.09,g/dL,,,4.09,4.09,g/dL,,,,1751-7,SERUM,,,TREATMENT,2200,VISIT 22 (WEEK 20),2019-06-11,141
CDISC-TEST,LB,CDISC-TEST-010,418,459,ALB,Albumin,BIOCHEMISTRY,4.28,g/dL,,,4.28,4.28,g/dL,,,,1751-7,SERUM,,,FOLLOW-UP,2900,END OF TRIAL,2019-08-22,213
CDISC-TEST,LB,CDISC-TEST-010,419,431,ALT,Alanine Aminotransferase,BIOCHEMISTRY,44.63,U/L,,,44.63,44.63,U/L,,,,1742-6,SERUM,,,SCREENING,100,VISIT 1 (WEEK -2),2019-01-07,-15
CDISC-TEST,LB,CDISC-TEST-010,420,422,ALT,Alanine Aminotransferase,BIOCHEMISTRY,22.33,U/L,,,22.33,22.33,U/L,,,,1742-6,SERUM,,,TREATMENT,200,VISIT 2 (WEEK 0),2019-01-22,1
CDISC-TEST,LB,CDISC-TEST-010,421,445,ALT,Alanine Aminotransferase,BIOCHEMISTRY,4.31,U/L,,,4.31,4.31,U/L,,,,1742-6,SERUM,,,TREATMENT,2200,VISIT 22 (WEEK 20),2019-06-11,141
CDISC-TEST,LB,CDISC-TEST-010,422,456,ALT,Alanine Aminotransferase,BIOCHEMISTRY,53.62,U/L,,,53.62,53.62,U/L,,,,1742-6,SERUM,,,FOLLOW-UP,2900,END OF TRIAL,2019-08-22,213
CDISC-TEST,LB,CDISC-TEST-010,423,427,CHOL,Cholesterol,LIPIDS,4.94,mmol/L,,,4.94,4.94,mmol/L,,,,2093-3,SERUM,,,SCREENING,100,VISIT 1 (WEEK -2),2019-01-07,-15
CDISC-TEST,LB,CDISC-TEST-010,424,418,CHOL,Cholesterol,LIPIDS,4.28,mmol/L,,,4.28,4.28,mmol/L,,,,2093-3,SERUM,,,TREATMENT,200,VISIT 2 (WEEK 0),2019-01-22,1
CDISC-TEST,LB,CDISC-TEST-010,425,441,CHOL,Cholesterol,LIPIDS,3.86,mmol/L,,,3.86,3.86,mmol/L,,,,2093-3,SERUM,,,TREATMENT,2200,VISIT 22 (WEEK 20),2019-06-11,141
CDISC-TEST,LB,CDISC-TEST-010,426,452,CHOL,Cholesterol,LIPIDS,4.84,mmol/L,,,4.84,4.84,mmol/L,,,,2093-3,SERUM,,,FOLLOW-UP,2900,END OF TRIAL,2019-08-22,213
CDISC-TEST,LB,CDISC-TEST-010,427,426,CREAT,Creatinine,BIOCHEMISTRY,147.19,umol/L,,,147.19,147.19,umol/L,,,,14682-9,SERUM,,,SCREENING,100,VISIT 1 (WEEK -2),2019-01-07,-15
CDISC-TEST,LB,CDISC-TEST-010,428,416,CREAT,Creatinine,BIOCHEMISTRY,44.85,umol/L,,,44.85,44.85,umol/L,,,,14682-9,SERUM,,,TREATMENT,200,VISIT 2 (WEEK 0),2019-01-22,1
CDISC-TEST,LB,CDISC-TEST-010,429,439,CREAT,Creatinine,BIOCHEMISTRY,89.17,umol/L,,,89.17,89.17,umol/L,,,,14682-9,SERUM,,,TREATMENT,2200,VISIT 22 (WEEK 20),2019-06-11,141
CDISC-TEST,LB,CDISC-TEST-010,430,450,CREAT,Creatinine,BIOCHEMISTRY,112.59,umol/L,,,112.59,112.59,umol/L,,,,14682-9,SERUM,,,FOLLOW-UP,2900,END OF TRIAL,2019-08-22,213
CDISC-TEST,LB,CDISC-TEST-010,431,417,HBA1CHGB,Hemoglobin A1C/Hemoglobin,GLUCOSE METABOLISM,41.43,mmol/mol,,,41.43,41.43,mmol/mol,,,,59261-8,BLOOD,,,TREATMENT,200,VISIT 2 (WEEK 0),2019-01-22,1
CDISC-TEST,LB,CDISC-TEST-010,432,435,HBA1CHGB,Hemoglobin A1C/Hemoglobin,GLUCOSE METABOLISM,73.39,mmol/mol,,,73.39,73.39,mmol/mol,,,,59261-8,BLOOD,,,TREATMENT,300,VISIT 3 (WEEK 1),2019-01-29,8
CDISC-TEST,LB,CDISC-TEST-010,433,449,HBA1CHGB,Hemoglobin A1C/Hemoglobin,GLUCOSE METABOLISM,55.19,mmol/mol,,,55.19,55.19,mmol/mol,,,,59261-8,BLOOD,,,TREATMENT,900,VISIT 9 (WEEK 7),2019-03-12,50
CDISC-TEST,LB,CDISC-TEST-010,434,415,HBA1CHGB,Hemoglobin A1C/Hemoglobin,GLUCOSE METABOLISM,64.52,mmol/mol,,,64.52,64.52,mmol/mol,,,,59261-8,BLOOD,,,TREATMENT,1400,VISIT 14 (WEEK 12),2019-04-16,85
CDISC-TEST,LB,CDISC-TEST-010,435,460,HBA1CHGB,Hemoglobin A1C/Hemoglobin,GLUCOSE METABOLISM,82.35,mmol/mol,,,82.35,82.35,mmol/mol,,,,59261-8,BLOOD,,,TREATMENT,1900,VISIT 19 (WEEK 17),2019-05-21,120
CDISC-TEST,LB,CDISC-TEST-010,436,438,HBA1CHGB,Hemoglobin A1C/Hemoglobin,GLUCOSE METABOLISM,52.44,mmol/mol,,,52.44,52.44,mmol/mol,,,,59261-8,BLOOD,,,TREATMENT,2000,VISIT 20 (WEEK 18),2019-05-28,127
CDISC-TEST,LB,CDISC-TEST-010,437,436,HBA1CHGB,Hemoglobin A1C/Hemoglobin,GLUCOSE METABOLISM,61.24,mmol/mol,,,61.24,61.24,mmol/mol,,,,59261-8,BLOOD,,,TREATMENT,2100,VISIT 21 (WEEK 19),2019-06-04,134
CDISC-TEST,LB,CDISC-TEST-010,438,440,HBA1CHGB,Hemoglobin A1C/Hemoglobin,GLUCOSE METABOLISM,67.01,mmol/mol,,,67.01,67.01,mmol/mol,,,,59261-8,BLOOD,,,TREATMENT,2200,VISIT 22 (WEEK 20),2019-06-11,141
CDISC-TEST,LB,CDISC-TEST-010,439,437,HBA1CHGB,Hemoglobin A1C/Hemoglobin,GLUCOSE METABOLISM,60.79,mmol/mol,,,60.79,60.79,mmol/mol,,,,59261-8,BLOOD,,,TREATMENT,2800,VISIT 28 (WEEK 26),2019-07-23,183
CDISC-TEST,LB,CDISC-TEST-010,440,451,HBA1CHGB,Hemoglobin A1C/Hemoglobin,GLUCOSE METABOLISM,74.6,mmol/mol,,,74.6,74.59999999999998,mmol/mol,,,,59261-8,BLOOD,,,FOLLOW-UP,2900,END OF TRIAL,2019-08-22,213
CDISC-TEST,LB,CDISC-TEST-010,441,433,HCT,Hematocrit,HAEMATOLOGY,45.43,%,,,45.43,45.43,%,,,,20570-8,BLOOD,,,SCREENING,100,VISIT 1 (WEEK -2),2019-01-07,-15
CDISC-TEST,LB,CDISC-TEST-010,442,424,HCT,Hematocrit,HAEMATOLOGY,35.06,%,,,35.06,35.06,%,,,,20570-8,BLOOD,,,TREATMENT,200,VISIT 2 (WEEK 0),2019-01-22,1
CDISC-TEST,LB,CDISC-TEST-010,443,447,HCT,Hematocrit,HAEMATOLOGY,41.49,%,,,41.49,41.49,%,,,,20570-8,BLOOD,,,TREATMENT,2200,VISIT 22 (WEEK 20),2019-06-11,141
CDISC-TEST,LB,CDISC-TEST-010,444,458,HCT,Hematocrit,HAEMATOLOGY,35.57,%,,,35.57,35.57,%,,,,20570-8,BLOOD,,,FOLLOW-UP,2900,END OF TRIAL,2019-08-22,213
CDISC-TEST,LB,CDISC-TEST-010,445,432,HDL,HDL Cholesterol,LIPIDS,1.16,mmol/L,,,1.16,1.16,mmol/L,,,,14646-4,SERUM,,,SCREENING,100,VISIT 1 (WEEK -2),2019-01-07,-15
CDISC-TEST,LB,CDISC-TEST-010,446,423,HDL,HDL Cholesterol,LIPIDS,1.06,mmol/L,,,1.06,1.06,mmol/L,,,,14646-4,SERUM,,,TREATMENT,200,VISIT 2 (WEEK 0),2019-01-22,1
CDISC-TEST,LB,CDISC-TEST-010,447,446,HDL,HDL Cholesterol,LIPIDS,1.25,mmol/L,,,1.25,1.25,mmol/L,,,,14646-4,SERUM,,,TREATMENT,2200,VISIT 22 (WEEK 20),2019-06-11,141
CDISC-TEST,LB,CDISC-TEST-010,448,457,HDL,HDL Cholesterol,LIPIDS,1.27,mmol/L,,,1.27,1.27,mmol/L,,,,14646-4,SERUM,,,FOLLOW-UP,2900,END OF TRIAL,2019-08-22,213
CDISC-TEST,LB,CDISC-TEST-010,449,430,HGB,Hemoglobin,HAEMATOLOGY,5.81,mmol/L,,,5.81,5.81,mmol/L,,,,718-7,BLOOD,,,SCREENING,100,VISIT 1 (WEEK -2),2019-01-07,-15
CDISC-TEST,LB,CDISC-TEST-010,450,421,HGB,Hemoglobin,HAEMATOLOGY,10.44,mmol/L,,,10.44,10.44,mmol/L,,,,718-7,BLOOD,,,TREATMENT,200,VISIT 2 (WEEK 0),2019-01-22,1
CDISC-TEST,LB,CDISC-TEST-010,451,444,HGB,Hemoglobin,HAEMATOLOGY,8.69,mmol/L,,,8.69,8.69,mmol/L,,,,718-7,BLOOD,,,TREATMENT,2200,VISIT 22 (WEEK 20),2019-06-11,141
CDISC-TEST,LB,CDISC-TEST-010,452,455,HGB,Hemoglobin,HAEMATOLOGY,9.36,mmol/L,,,9.36,9.36,mmol/L,,,,718-7,BLOOD,,,FOLLOW-UP,2900,END OF TRIAL,2019-08-22,213
CDISC-TEST,LB,CDISC-TEST-010,453,429,LDL,LDL Cholesterol,LIPIDS,2.04,mmol/L,,,2.04,2.04,mmol/L,,,,22748-8,SERUM,,,SCREENING,100,VISIT 1 (WEEK -2),2019-01-07,-15
CDISC-TEST,LB,CDISC-TEST-010,454,420,LDL,LDL Cholesterol,LIPIDS,4.29,mmol/L,,,4.29,4.29,mmol/L,,,,22748-8,SERUM,,,TREATMENT,200,VISIT 2 (WEEK 0),2019-01-22,1
CDISC-TEST,LB,CDISC-TEST-010,455,443,LDL,LDL Cholesterol,LIPIDS,2.37,mmol/L,,,2.37,2.37,mmol/L,,,,22748-8,SERUM,,,TREATMENT,2200,VISIT 22 (WEEK 20),2019-06-11,141
CDISC-TEST,LB,CDISC-TEST-010,456,454,LDL,LDL Cholesterol,LIPIDS,2.93,mmol/L,,,2.93,2.93,mmol/L,,,,22748-8,SERUM,,,FOLLOW-UP,2900,END OF TRIAL,2019-08-22,213
CDISC-TEST,LB,CDISC-TEST-010,457,428,PLAT,Platelets,HAEMATOLOGY,308.67,10^9/L,,,308.67,308.67,10^9/L,,,,26515-7,BLOOD,,,SCREENING,100,VISIT 1 (WEEK -2),2019-01-07,-15
CDISC-TEST,LB,CDISC-TEST-010,458,419,PLAT,Platelets,HAEMATOLOGY,217.44,10^9/L,,,217.44,217.44,10^9/L,,,,26515-7,BLOOD,,,TREATMENT,200,VISIT 2 (WEEK 0),2019-01-22,1
CDISC-TEST,LB,CDISC-TEST-010,459,442,PLAT,Platelets,HAEMATOLOGY,244.07,10^9/L,,,244.07,244.07,10^9/L,,,,26515-7,BLOOD,,,TREATMENT,2200,VISIT 22 (WEEK 20),2019-06-11,141
CDISC-TEST,LB,CDISC-TEST-010,460,453,PLAT,Platelets,HAEMATOLOGY,198.16,10^9/L,,,198.16,198.16,10^9/L,,,,26515-7,BLOOD,,,FOLLOW-UP,2900,END OF TRIAL,2019-08-22,213
CDISC-TEST,LB,CDISC-TEST-011,461,471,ALB,Albumin,BIOCHEMISTRY,3.91,g/dL,,,3.91,3.91,g/dL,,,,1751-7,SERUM,,,SCREENING,100,VISIT 1 (WEEK -2),2019-01-26,-15
CDISC-TEST,LB,CDISC-TEST-011,462,492,ALB,Albumin,BIOCHEMISTRY,4.33,g/dL,,,4.33,4.33,g/dL,,,,1751-7,SERUM,,,TREATMENT,200,VISIT 2 (WEEK 0),2019-02-10,1
CDISC-TEST,LB,CDISC-TEST-011,463,481,ALB,Albumin,BIOCHEMISTRY,3.66,g/dL,,,3.66,3.66,g/dL,,,,1751-7,SERUM,,,TREATMENT,2200,VISIT 22 (WEEK 20),2019-06-30,141
CDISC-TEST,LB,CDISC-TEST-011,464,506,ALB,Albumin,BIOCHEMISTRY,4.33,g/dL,,,4.33,4.33,g/dL,,,,1751-7,SERUM,,,FOLLOW-UP,2900,END OF TRIAL,2019-09-10,213
CDISC-TEST,LB,CDISC-TEST-011,465,468,ALT,Alanine Aminotransferase,BIOCHEMISTRY,25.26,U/L,,,25.26,25.26,U/L,,,,1742-6,SERUM,,,SCREENING,100,VISIT 1 (WEEK -2),2019-01-26,-15
CDISC-TEST,LB,CDISC-TEST-011,466,489,ALT,Alanine Aminotransferase,BIOCHEMISTRY,34.41,U/L,,,34.41,34.41,U/L,,,,1742-6,SERUM,,,TREATMENT,200,VISIT 2 (WEEK 0),2019-02-10,1
CDISC-TEST,LB,CDISC-TEST-011,467,478,ALT,Alanine Aminotransferase,BIOCHEMISTRY,21.04,U/L,,,21.04,21.04,U/L,,,,1742-6,SERUM,,,TREATMENT,2200,VISIT 22 (WEEK 20),2019-06-30,141
CDISC-TEST,LB,CDISC-TEST-011,468,503,ALT,Alanine Aminotransferase,BIOCHEMISTRY,10.01,U/L,,,10.01,10.01,U/L,,,,1742-6,SERUM,,,FOLLOW-UP,2900,END OF TRIAL,2019-09-10,213
CDISC-TEST,LB,CDISC-TEST-011,469,464,CHOL,Cholesterol,LIPIDS,4.66,mmol/L,,,4.66,4.66,mmol/L,,,,2093-3,SERUM,,,SCREENING,100,VISIT 1 (WEEK -2),2019-01-26,-15
CDISC-TEST,LB,CDISC-TEST-011,470,485,CHOL,Cholesterol,LIPIDS,5.11,mmol/L,,,5.11,5.11,mmol/L,,,,2093-3,SERUM,,,TREATMENT,200,VISIT 2 (WEEK 0),2019-02-10,1
CDISC-TEST,LB,CDISC-TEST-011,471,474,CHOL,Cholesterol,LIPIDS,4.97,mmol/L,,,4.97,4.97,mmol/L,,,,2093-3,SERUM,,,TREATMENT,2200,VISIT 22 (WEEK 20),2019-06-30,141
CDISC-TEST,LB,CDISC-TEST-011,472,499,CHOL,Cholesterol,LIPIDS,2.82,mmol/L,,,2.82,2.82,mmol/L,,,,2093-3,SERUM,,,FOLLOW-UP,2900,END OF TRIAL,2019-09-10,213
CDISC-TEST,LB,CDISC-TEST-011,473,463,CREAT,Creatinine,BIOCHEMISTRY,110.09,umol/L,,,110.09,110.09,umol/L,,,,14682-9,SERUM,,,SCREENING,100,VISIT 1 (WEEK -2),2019-01-26,-15
CDISC-TEST,LB,CDISC-TEST-011,474,483,CREAT,Creatinine,BIOCHEMISTRY,75.81,umol/L,,,75.81,75.81,umol/L,,,,14682-9,SERUM,,,TREATMENT,200,VISIT 2 (WEEK 0),2019-02-10,1
CDISC-TEST,LB,CDISC-TEST-011,475,472,CREAT,Creatinine,BIOCHEMISTRY,73.54,umol/L,,,73.54,73.54,umol/L,,,,14682-9,SERUM,,,TREATMENT,2200,VISIT 22 (WEEK 20),2019-06-30,141
CDISC-TEST,LB,CDISC-TEST-011,476,497,CREAT,Creatinine,BIOCHEMISTRY,118.78,umol/L,,,118.78,118.78,umol/L,,,,14682-9,SERUM,,,FOLLOW-UP,2900,END OF TRIAL,2019-09-10,213
CDISC-TEST,LB,CDISC-TEST-011,477,484,HBA1CHGB,Hemoglobin A1C/Hemoglobin,GLUCOSE METABOLISM,45.87,mmol/mol,,,45.87,45.87,mmol/mol,,,,59261-8,BLOOD,,,TREATMENT,200,VISIT 2 (WEEK 0),2019-02-10,1
CDISC-TEST,LB,CDISC-TEST-011,478,496,HBA1CHGB,Hemoglobin A1C/Hemoglobin,GLUCOSE METABOLISM,31.89,mmol/mol,,,31.89,31.89,mmol/mol,,,,59261-8,BLOOD,,,TREATMENT,300,VISIT 3 (WEEK 1),2019-02-17,8
CDISC-TEST,LB,CDISC-TEST-011,479,461,HBA1CHGB,Hemoglobin A1C/Hemoglobin,GLUCOSE METABOLISM,65.31,mmol/mol,,,65.31,65.31,mmol/mol,,,,59261-8,BLOOD,,,TREATMENT,900,VISIT 9 (WEEK 7),2019-03-31,50
CDISC-TEST,LB,CDISC-TEST-011,480,462,HBA1CHGB,Hemoglobin A1C/Hemoglobin,GLUCOSE METABOLISM,78.83,mmol/mol,,,78.83,78.83,mmol/mol,,,,59261-8,BLOOD,,,TREATMENT,1400,VISIT 14 (WEEK 12),2019-05-05,85
CDISC-TEST,LB,CDISC-TEST-011,481,495,HBA1CHGB,Hemoglobin A1C/Hemoglobin,GLUCOSE METABOLISM,80.85,mmol/mol,,,80.85,80.84999999999998,mmol/mol,,,,59261-8,BLOOD,,,TREATMENT,1900,VISIT 19 (WEEK 17),2019-06-09,120
CDISC-TEST,LB,CDISC-TEST-011,482,482,HBA1CHGB,Hemoglobin A1C/Hemoglobin,GLUCOSE METABOLISM,62.82,mmol/mol,,,62.82,62.82,mmol/mol,,,,59261-8,BLOOD,,,TREATMENT,2000,VISIT 20 (WEEK 18),2019-06-16,127
CDISC-TEST,LB,CDISC-TEST-011,483,494,HBA1CHGB,Hemoglobin A1C/Hemoglobin,GLUCOSE METABOLISM,77.84,mmol/mol,,,77.84,77.84,mmol/mol,,,,59261-8,BLOOD,,,TREATMENT,2100,VISIT 21 (WEEK 19),2019-06-23,134
CDISC-TEST,LB,CDISC-TEST-011,484,473,HBA1CHGB,Hemoglobin A1C/Hemoglobin,GLUCOSE METABOLISM,63.67,mmol/mol,,,63.67,63.67,mmol/mol,,,,59261-8,BLOOD,,,TREATMENT,2200,VISIT 22 (WEEK 20),2019-06-30,141
CDISC-TEST,LB,CDISC-TEST-011,485,493,HBA1CHGB,Hemoglobin A1C/Hemoglobin,GLUCOSE METABOLISM,41.5,mmol/mol,,,41.5,41.5,mmol/mol,,,,59261-8,BLOOD,,,TREATMENT,2800,VISIT 28 (WEEK 26),2019-08-11,183
CDISC-TEST,LB,CDISC-TEST-011,486,498,HBA1CHGB,Hemoglobin A1C/Hemoglobin,GLUCOSE METABOLISM,44.26,mmol/mol,,,44.26,44.26,mmol/mol,,,,59261-8,BLOOD,,,FOLLOW-UP,2900,END OF TRIAL,2019-09-10,213
CDISC-TEST,LB,CDISC-TEST-011,487,470,HCT,Hematocrit,HAEMATOLOGY,40.86,%,,,40.86,40.86,%,,,,20570-8,BLOOD,,,SCREENING,100,VISIT 1 (WEEK -2),2019-01-26,-15
CDISC-TEST,LB,CDISC-TEST-011,488,491,HCT,Hematocrit,HAEMATOLOGY,41.88,%,,,41.88,41.88,%,,,,20570-8,BLOOD,,,TREATMENT,200,VISIT 2 (WEEK 0),2019-02-10,1
CDISC-TEST,LB,CDISC-TEST-011,489,480,HCT,Hematocrit,HAEMATOLOGY,37.28,%,,,37.28,37.28,%,,,,20570-8,BLOOD,,,TREATMENT,2200,VISIT 22 (WEEK 20),2019-06-30,141
CDISC-TEST,LB,CDISC-TEST-011,490,505,HCT,Hematocrit,HAEMATOLOGY,49.3,%,,,49.3,49.3,%,,,,20570-8,BLOOD,,,FOLLOW-UP,2900,END OF TRIAL,2019-09-10,213
CDISC-TEST,LB,CDISC-TEST-011,491,469,HDL,HDL Cholesterol,LIPIDS,0.61,mmol/L,,,0.61,0.61,mmol/L,,,,14646-4,SERUM,,,SCREENING,100,VISIT 1 (WEEK -2),2019-01-26,-15
CDISC-TEST,LB,CDISC-TEST-011,492,490,HDL,HDL Cholesterol,LIPIDS,0.75,mmol/L,,,0.75,0.75,mmol/L,,,,14646-4,SERUM,,,TREATMENT,200,VISIT 2 (WEEK 0),2019-02-10,1
CDISC-TEST,LB,CDISC-TEST-011,493,479,HDL,HDL Cholesterol,LIPIDS,1.53,mmol/L,,,1.53,1.53,mmol/L,,,,14646-4,SERUM,,,TREATMENT,2200,VISIT 22 (WEEK 20),2019-06-30,141
CDISC-TEST,LB,CDISC-TEST-011,494,504,HDL,HDL Cholesterol,LIPIDS,1.53,mmol/L,,,1.53,1.53,mmol/L,,,,14646-4,SERUM,,,FOLLOW-UP,2900,END OF TRIAL,2019-09-10,213
CDISC-TEST,LB,CDISC-TEST-011,495,467,HGB,Hemoglobin,HAEMATOLOGY,9.09,mmol/L,,,9.09,9.09,mmol/L,,,,718-7,BLOOD,,,SCREENING,100,VISIT 1 (WEEK -2),2019-01-26,-15
CDISC-TEST,LB,CDISC-TEST-011,496,488,HGB,Hemoglobin,HAEMATOLOGY,8.25,mmol/L,,,8.25,8.25,mmol/L,,,,718-7,BLOOD,,,TREATMENT,200,VISIT 2 (WEEK 0),2019-02-10,1
CDISC-TEST,LB,CDISC-TEST-011,497,477,HGB,Hemoglobin,HAEMATOLOGY,9.91,mmol/L,,,9.91,9.91,mmol/L,,,,718-7,BLOOD,,,TREATMENT,2200,VISIT 22 (WEEK 20),2019-06-30,141
CDISC-TEST,LB,CDISC-TEST-011,498,502,HGB,Hemoglobin,HAEMATOLOGY,8.76,mmol/L,,,8.76,8.76,mmol/L,,,,718-7,BLOOD,,,FOLLOW-UP,2900,END OF TRIAL,2019-09-10,213
CDISC-TEST,LB,CDISC-TEST-011,499,466,LDL,LDL Cholesterol,LIPIDS,3.11,mmol/L,,,3.11,3.11,mmol/L,,,,22748-8,SERUM,,,SCREENING,100,VISIT 1 (WEEK -2),2019-01-26,-15
CDISC-TEST,LB,CDISC-TEST-011,500,487,LDL,LDL Cholesterol,LIPIDS,2.91,mmol/L,,,2.91,2.91,mmol/L,,,,22748-8,SERUM,,,TREATMENT,200,VISIT 2 (WEEK 0),2019-02-10,1
CDISC-TEST,LB,CDISC-TEST-011,501,476,LDL,LDL Cholesterol,LIPIDS,0.95,mmol/L,,,0.95,0.95,mmol/L,,,,22748-8,SERUM,,,TREATMENT,2200,VISIT 22 (WEEK 20),2019-06-30,141
CDISC-TEST,LB,CDISC-TEST-011,502,501,LDL,LDL Cholesterol,LIPIDS,0.38,mmol/L,,,0.38,0.38,mmol/L,,,,22748-8,SERUM,,,FOLLOW-UP,2900,END OF TRIAL,2019-09-10,213
CDISC-TEST,LB,CDISC-TEST-011,503,465,PLAT,Platelets,HAEMATOLOGY,182.77,10^9/L,,,182.77,182.77,10^9/L,,,,26515-7,BLOOD,,,SCREENING,100,VISIT 1 (WEEK -2),2019-01-26,-15
CDISC-TEST,LB,CDISC-TEST-011,504,486,PLAT,Platelets,HAEMATOLOGY,337.52,10^9/L,,,337.52,337.52,10^9/L,,,,26515-7,BLOOD,,,TREATMENT,200,VISIT 2 (WEEK 0),2019-02-10,1
CDISC-TEST,LB,CDISC-TEST-011,505,475,PLAT,Platelets,HAEMATOLOGY,167.71,10^9/L,,,167.71,167.71,10^9/L,,,,26515-7,BLOOD,,,TREATMENT,2200,VISIT 22 (WEEK 20),2019-06-30,141
CDISC-TEST,LB,CDISC-TEST-011,506,500,PLAT,Platelets,HAEMATOLOGY,213.16,10^9/L,,,213.16,213.16,10^9/L,,,,26515-7,BLOOD,,,FOLLOW-UP,2900,END OF TRIAL,2019-09-10,213
CDISC-TEST,LB,CDISC-TEST-012,507,517,ALB,Albumin,BIOCHEMISTRY,4.35,g/dL,,,4.35,4.35,g/dL,,,,1751-7,SERUM,,,SCREENING,100,VISIT 1 (WEEK -2),2019-02-28,-15
CDISC-TEST,LB,CDISC-TEST-012,508,527,ALB,Albumin,BIOCHEMISTRY,4.73,g/dL,,,4.73,4.73,g/dL,,,,1751-7,SERUM,,,TREATMENT,200,VISIT 2 (WEEK 0),2019-03-15,1
CDISC-TEST,LB,CDISC-TEST-012,509,540,ALB,Albumin,BIOCHEMISTRY,3.73,g/dL,,,3.73,3.73,g/dL,,,,1751-7,SERUM,,,TREATMENT,2200,VISIT 22 (WEEK 20),2019-08-02,141
CDISC-TEST,LB,CDISC-TEST-012,510,552,ALB,Albumin,BIOCHEMISTRY,4.1,g/dL,,,4.1,4.1,g/dL,,,,1751-7,SERUM,,,FOLLOW-UP,2900,END OF TRIAL,2019-10-13,213
CDISC-TEST,LB,CDISC-TEST-012,511,514,ALT,Alanine Aminotransferase,BIOCHEMISTRY,33.23,U/L,,,33.23,33.23,U/L,,,,1742-6,SERUM,,,SCREENING,100,VISIT 1 (WEEK -2),2019-02-28,-15
CDISC-TEST,LB,CDISC-TEST-012,512,524,ALT,Alanine Aminotransferase,BIOCHEMISTRY,10.4,U/L,,,10.4,10.4,U/L,,,,1742-6,SERUM,,,TREATMENT,200,VISIT 2 (WEEK 0),2019-03-15,1
CDISC-TEST,LB,CDISC-TEST-012,513,537,ALT,Alanine Aminotransferase,BIOCHEMISTRY,8.58,U/L,,,8.58,8.58,U/L,,,,1742-6,SERUM,,,TREATMENT,2200,VISIT 22 (WEEK 20),2019-08-02,141
CDISC-TEST,LB,CDISC-TEST-012,514,549,ALT,Alanine Aminotransferase,BIOCHEMISTRY,9.83,U/L,,,9.83,9.83,U/L,,,,1742-6,SERUM,,,FOLLOW-UP,2900,END OF TRIAL,2019-10-13,213
CDISC-TEST,LB,CDISC-TEST-012,515,510,CHOL,Cholesterol,LIPIDS,3.31,mmol/L,,,3.31,3.31,mmol/L,,,,2093-3,SERUM,,,SCREENING,100,VISIT 1 (WEEK -2),2019-02-28,-15
CDISC-TEST,LB,CDISC-TEST-012,516,520,CHOL,Cholesterol,LIPIDS,3.74,mmol/L,,,3.74,3.74,mmol/L,,,,2093-3,SERUM,,,TREATMENT,200,VISIT 2 (WEEK 0),2019-03-15,1
CDISC-TEST,LB,CDISC-TEST-012,517,533,CHOL,Cholesterol,LIPIDS,5.87,mmol/L,,,5.87,5.87,mmol/L,,,,2093-3,SERUM,,,TREATMENT,2200,VISIT 22 (WEEK 20),2019-08-02,141
CDISC-TEST,LB,CDISC-TEST-012,518,545,CHOL,Cholesterol,LIPIDS,4.38,mmol/L,,,4.38,4.38,mmol/L,,,,2093-3,SERUM,,,FOLLOW-UP,2900,END OF TRIAL,2019-10-13,213
CDISC-TEST,LB,CDISC-TEST-012,519,509,CREAT,Creatinine,BIOCHEMISTRY,31.54,umol/L,,,31.54,31.54,umol/L,,,,14682-9,SERUM,,,SCREENING,100,VISIT 1 (WEEK -2),2019-02-28,-15
CDISC-TEST,LB,CDISC-TEST-012,520,518,CREAT,Creatinine,BIOCHEMISTRY,27.2,umol/L,,,27.2,27.2,umol/L,,,,14682-9,SERUM,,,TREATMENT,200,VISIT 2 (WEEK 0),2019-03-15,1
CDISC-TEST,LB,CDISC-TEST-012,521,531,CREAT,Creatinine,BIOCHEMISTRY,164.22,umol/L,,,164.22,164.22,umol/L,,,,14682-9,SERUM,,,TREATMENT,2200,VISIT 22 (WEEK 20),2019-08-02,141
CDISC-TEST,LB,CDISC-TEST-012,522,543,CREAT,Creatinine,BIOCHEMISTRY,56.04,umol/L,,,56.04,56.04,umol/L,,,,14682-9,SERUM,,,FOLLOW-UP,2900,END OF TRIAL,2019-10-13,213
CDISC-TEST,LB,CDISC-TEST-012,523,519,HBA1CHGB,Hemoglobin A1C/Hemoglobin,GLUCOSE METABOLISM,19.75,mmol/mol,,,19.75,19.75,mmol/mol,,,,59261-8,BLOOD,,,TREATMENT,200,VISIT 2 (WEEK 0),2019-03-15,1
CDISC-TEST,LB,CDISC-TEST-012,524,508,HBA1CHGB,Hemoglobin A1C/Hemoglobin,GLUCOSE METABOLISM,75.7,mmol/mol,,,75.7,75.7,mmol/mol,,,,59261-8,BLOOD,,,TREATMENT,300,VISIT 3 (WEEK 1),2019-03-22,8
CDISC-TEST,LB,CDISC-TEST-012,525,528,HBA1CHGB,Hemoglobin A1C/Hemoglobin,GLUCOSE METABOLISM,50.58,mmol/mol,,,50.58,50.58,mmol/mol,,,,59261-8,BLOOD,,,TREATMENT,900,VISIT 9 (WEEK 7),2019-05-03,50
CDISC-TEST,LB,CDISC-TEST-012,526,529,HBA1CHGB,Hemoglobin A1C/Hemoglobin,GLUCOSE METABOLISM,56.14,mmol/mol,,,56.14,56.14,mmol/mol,,,,59261-8,BLOOD,,,TREATMENT,1400,VISIT 14 (WEEK 12),2019-06-07,85
CDISC-TEST,LB,CDISC-TEST-012,527,530,HBA1CHGB,Hemoglobin A1C/Hemoglobin,GLUCOSE METABOLISM,68.37,mmol/mol,,,68.37,68.37,mmol/mol,,,,59261-8,BLOOD,,,TREATMENT,1900,VISIT 19 (WEEK 17),2019-07-12,120
CDISC-TEST,LB,CDISC-TEST-012,528,541,HBA1CHGB,Hemoglobin A1C/Hemoglobin,GLUCOSE METABOLISM,53.08,mmol/mol,,,53.08,53.08,mmol/mol,,,,59261-8,BLOOD,,,TREATMENT,2000,VISIT 20 (WEEK 18),2019-07-19,127
CDISC-TEST,LB,CDISC-TEST-012,529,542,HBA1CHGB,Hemoglobin A1C/Hemoglobin,GLUCOSE METABOLISM,100.54,mmol/mol,,,100.54,100.54,mmol/mol,,,,59261-8,BLOOD,,,TREATMENT,2100,VISIT 21 (WEEK 19),2019-07-26,134
CDISC-TEST,LB,CDISC-TEST-012,530,532,HBA1CHGB,Hemoglobin A1C/Hemoglobin,GLUCOSE METABOLISM,57.26,mmol/mol,,,57.26,57.26,mmol/mol,,,,59261-8,BLOOD,,,TREATMENT,2200,VISIT 22 (WEEK 20),2019-08-02,141
CDISC-TEST,LB,CDISC-TEST-012,531,507,HBA1CHGB,Hemoglobin A1C/Hemoglobin,GLUCOSE METABOLISM,65.16,mmol/mol,,,65.16,65.16,mmol/mol,,,,59261-8,BLOOD,,,TREATMENT,2800,VISIT 28 (WEEK 26),2019-09-13,183
CDISC-TEST,LB,CDISC-TEST-012,532,544,HBA1CHGB,Hemoglobin A1C/Hemoglobin,GLUCOSE METABOLISM,72.96,mmol/mol,,,72.96,72.95999999999998,mmol/mol,,,,59261-8,BLOOD,,,FOLLOW-UP,2900,END OF TRIAL,2019-10-13,213
CDISC-TEST,LB,CDISC-TEST-012,533,516,HCT,Hematocrit,HAEMATOLOGY,40.33,%,,,40.33,40.33,%,,,,20570-8,BLOOD,,,SCREENING,100,VISIT 1 (WEEK -2),2019-02-28,-15
CDISC-TEST,LB,CDISC-TEST-012,534,526,HCT,Hematocrit,HAEMATOLOGY,47.82,%,,,47.82,47.82,%,,,,20570-8,BLOOD,,,TREATMENT,200,VISIT 2 (WEEK 0),2019-03-15,1
CDISC-TEST,LB,CDISC-TEST-012,535,539,HCT,Hematocrit,HAEMATOLOGY,35.01,%,,,35.01,35.01,%,,,,20570-8,BLOOD,,,TREATMENT,2200,VISIT 22 (WEEK 20),2019-08-02,141
CDISC-TEST,LB,CDISC-TEST-012,536,551,HCT,Hematocrit,HAEMATOLOGY,39.01,%,,,39.01,39.01,%,,,,20570-8,BLOOD,,,FOLLOW-UP,2900,END OF TRIAL,2019-10-13,213
CDISC-TEST,LB,CDISC-TEST-012,537,515,HDL,HDL Cholesterol,LIPIDS,0.89,mmol/L,,,0.89,0.89,mmol/L,,,,14646-4,SERUM,,,SCREENING,100,VISIT 1 (WEEK -2),2019-02-28,-15
CDISC-TEST,LB,CDISC-TEST-012,538,525,HDL,HDL Cholesterol,LIPIDS,1.06,mmol/L,,,1.06,1.06,mmol/L,,,,14646-4,SERUM,,,TREATMENT,200,VISIT 2 (WEEK 0),2019-03-15,1
CDISC-TEST,LB,CDISC-TEST-012,539,538,HDL,HDL Cholesterol,LIPIDS,0.9,mmol/L,,,0.9,0.9,mmol/L,,,,14646-4,SERUM,,,TREATMENT,2200,VISIT 22 (WEEK 20),2019-08-02,141
CDISC-TEST,LB,CDISC-TEST-012,540,550,HDL,HDL Cholesterol,LIPIDS,1,mmol/L,,,1,1,mmol/L,,,,14646-4,SERUM,,,FOLLOW-UP,2900,END OF TRIAL,2019-10-13,213
CDISC-TEST,LB,CDISC-TEST-012,541,513,HGB,Hemoglobin,HAEMATOLOGY,7.69,mmol/L,,,7.69,7.69,mmol/L,,,,718-7,BLOOD,,,SCREENING,100,VISIT 1 (WEEK -2),2019-02-28,-15
CDISC-TEST,LB,CDISC-TEST-012,542,523,HGB,Hemoglobin,HAEMATOLOGY,8.48,mmol/L,,,8.48,8.48,mmol/L,,,,718-7,BLOOD,,,TREATMENT,200,VISIT 2 (WEEK 0),2019-03-15,1
CDISC-TEST,LB,CDISC-TEST-012,543,536,HGB,Hemoglobin,HAEMATOLOGY,9.6,mmol/L,,,9.6,9.6,mmol/L,,,,718-7,BLOOD,,,TREATMENT,2200,VISIT 22 (WEEK 20),2019-08-02,141
CDISC-TEST,LB,CDISC-TEST-012,544,548,HGB,Hemoglobin,HAEMATOLOGY,10.06,mmol/L,,,10.06,10.06,mmol/L,,,,718-7,BLOOD,,,FOLLOW-UP,2900,END OF TRIAL,2019-10-13,213
CDISC-TEST,LB,CDISC-TEST-012,545,512,LDL,LDL Cholesterol,LIPIDS,2.86,mmol/L,,,2.86,2.86,mmol/L,,,,22748-8,SERUM,,,SCREENING,100,VISIT 1 (WEEK -2),2019-02-28,-15
CDISC-TEST,LB,CDISC-TEST-012,546,522,LDL,LDL Cholesterol,LIPIDS,0.67,mmol/L,,,0.67,0.67,mmol/L,,,,22748-8,SERUM,,,TREATMENT,200,VISIT 2 (WEEK 0),2019-03-15,1
CDISC-TEST,LB,CDISC-TEST-012,547,535,LDL,LDL Cholesterol,LIPIDS,2.03,mmol/L,,,2.03,2.03,mmol/L,,,,22748-8,SERUM,,,TREATMENT,2200,VISIT 22 (WEEK 20),2019-08-02,141
CDISC-TEST,LB,CDISC-TEST-012,548,547,LDL,LDL Cholesterol,LIPIDS,3.18,mmol/L,,,3.18,3.18,mmol/L,,,,22748-8,SERUM,,,FOLLOW-UP,2900,END OF TRIAL,2019-10-13,213
CDISC-TEST,LB,CDISC-TEST-012,549,511,PLAT,Platelets,HAEMATOLOGY,177.88,10^9/L,,,177.88,177.88,10^9/L,,,,26515-7,BLOOD,,,SCREENING,100,VISIT 1 (WEEK -2),2019-02-28,-15
CDISC-TEST,LB,CDISC-TEST-012,550,521,PLAT,Platelets,HAEMATOLOGY,154.85,10^9/L,,,154.85,154.85,10^9/L,,,,26515-7,BLOOD,,,TREATMENT,200,VISIT 2 (WEEK 0),2019-03-15,1
CDISC-TEST,LB,CDISC-TEST-012,551,534,PLAT,Platelets,HAEMATOLOGY,220.04,10^9/L,,,220.04,220.04,10^9/L,,,,26515-7,BLOOD,,,TREATMENT,2200,VISIT 22 (WEEK 20),2019-08-02,141
CDISC-TEST,LB,CDISC-TEST-012,552,546,PLAT,Platelets,HAEMATOLOGY,153.63,10^9/L,,,153.63,153.63,10^9/L,,,,26515-7,BLOOD,,,FOLLOW-UP,2900,END OF TRIAL,2019-10-13,213
CDISC-TEST,LB,CDISC-TEST-013,553,575,ALB,Albumin,BIOCHEMISTRY,3.76,g/dL,,,3.76,3.76,g/dL,,,,1751-7,SERUM,,,SCREENING,100,VISIT 1 (WEEK -2),2019-02-23,-15
CDISC-TEST,LB,CDISC-TEST-013,554,585,ALB,Albumin,BIOCHEMISTRY,4.35,g/dL,,,4.35,4.35,g/dL,,,,1751-7,SERUM,,,TREATMENT,200,VISIT 2 (WEEK 0),2019-03-10,1
CDISC-TEST,LB,CDISC-TEST-013,555,598,ALB,Albumin,BIOCHEMISTRY,3.84,g/dL,,,3.84,3.84,g/dL,,,,1751-7,SERUM,,,TREATMENT,2200,VISIT 22 (WEEK 20),2019-07-28,141
CDISC-TEST,LB,CDISC-TEST-013,556,565,ALB,Albumin,BIOCHEMISTRY,4.24,g/dL,,,4.24,4.24,g/dL,,,,1751-7,SERUM,,,FOLLOW-UP,2900,END OF TRIAL,2019-10-08,213
CDISC-TEST,LB,CDISC-TEST-013,557,572,ALT,Alanine Aminotransferase,BIOCHEMISTRY,31.2,U/L,,,31.2,31.2,U/L,,,,1742-6,SERUM,,,SCREENING,100,VISIT 1 (WEEK -2),2019-02-23,-15
CDISC-TEST,LB,CDISC-TEST-013,558,582,ALT,Alanine Aminotransferase,BIOCHEMISTRY,20.23,U/L,,,20.23,20.23,U/L,,,,1742-6,SERUM,,,TREATMENT,200,VISIT 2 (WEEK 0),2019-03-10,1
CDISC-TEST,LB,CDISC-TEST-013,559,595,ALT,Alanine Aminotransferase,BIOCHEMISTRY,28.15,U/L,,,28.15,28.15,U/L,,,,1742-6,SERUM,,,TREATMENT,2200,VISIT 22 (WEEK 20),2019-07-28,141
CDISC-TEST,LB,CDISC-TEST-013,560,562,ALT,Alanine Aminotransferase,BIOCHEMISTRY,24.8,U/L,,,24.8,24.8,U/L,,,,1742-6,SERUM,,,FOLLOW-UP,2900,END OF TRIAL,2019-10-08,213
CDISC-TEST,LB,CDISC-TEST-013,561,568,CHOL,Cholesterol,LIPIDS,2.36,mmol/L,,,2.36,2.36,mmol/L,,,,2093-3,SERUM,,,SCREENING,100,VISIT 1 (WEEK -2),2019-02-23,-15
CDISC-TEST,LB,CDISC-TEST-013,562,578,CHOL,Cholesterol,LIPIDS,3.87,mmol/L,,,3.87,3.87,mmol/L,,,,2093-3,SERUM,,,TREATMENT,200,VISIT 2 (WEEK 0),2019-03-10,1
CDISC-TEST,LB,CDISC-TEST-013,563,591,CHOL,Cholesterol,LIPIDS,2.8,mmol/L,,,2.8,2.8,mmol/L,,,,2093-3,SERUM,,,TREATMENT,2200,VISIT 22 (WEEK 20),2019-07-28,141
CDISC-TEST,LB,CDISC-TEST-013,564,558,CHOL,Cholesterol,LIPIDS,2.57,mmol/L,,,2.57,2.57,mmol/L,,,,2093-3,SERUM,,,FOLLOW-UP,2900,END OF TRIAL,2019-10-08,213
CDISC-TEST,LB,CDISC-TEST-013,565,567,CREAT,Creatinine,BIOCHEMISTRY,90.87,umol/L,,,90.87,90.87,umol/L,,,,14682-9,SERUM,,,SCREENING,100,VISIT 1 (WEEK -2),2019-02-23,-15
CDISC-TEST,LB,CDISC-TEST-013,566,576,CREAT,Creatinine,BIOCHEMISTRY,67.58,umol/L,,,67.58,67.58,umol/L,,,,14682-9,SERUM,,,TREATMENT,200,VISIT 2 (WEEK 0),2019-03-10,1
CDISC-TEST,LB,CDISC-TEST-013,567,589,CREAT,Creatinine,BIOCHEMISTRY,79.89,umol/L,,,79.89,79.89,umol/L,,,,14682-9,SERUM,,,TREATMENT,2200,VISIT 22 (WEEK 20),2019-07-28,141
CDISC-TEST,LB,CDISC-TEST-013,568,556,CREAT,Creatinine,BIOCHEMISTRY,70.14,umol/L,,,70.14,70.14,umol/L,,,,14682-9,SERUM,,,FOLLOW-UP,2900,END OF TRIAL,2019-10-08,213
CDISC-TEST,LB,CDISC-TEST-013,569,577,HBA1CHGB,Hemoglobin A1C/Hemoglobin,GLUCOSE METABOLISM,85.21,mmol/mol,,,85.21,85.21,mmol/mol,,,,59261-8,BLOOD,,,TREATMENT,200,VISIT 2 (WEEK 0),2019-03-10,1
CDISC-TEST,LB,CDISC-TEST-013,570,553,HBA1CHGB,Hemoglobin A1C/Hemoglobin,GLUCOSE METABOLISM,65.66,mmol/mol,,,65.66,65.66,mmol/mol,,,,59261-8,BLOOD,,,TREATMENT,300,VISIT 3 (WEEK 1),2019-03-17,8
CDISC-TEST,LB,CDISC-TEST-013,571,554,HBA1CHGB,Hemoglobin A1C/Hemoglobin,GLUCOSE METABOLISM,81.4,mmol/mol,,,81.4,81.4,mmol/mol,,,,59261-8,BLOOD,,,TREATMENT,900,VISIT 9 (WEEK 7),2019-04-28,50
CDISC-TEST,LB,CDISC-TEST-013,572,555,HBA1CHGB,Hemoglobin A1C/Hemoglobin,GLUCOSE METABOLISM,39.94,mmol/mol,,,39.94,39.94,mmol/mol,,,,59261-8,BLOOD,,,TREATMENT,1400,VISIT 14 (WEEK 12),2019-06-02,85
CDISC-TEST,LB,CDISC-TEST-013,573,566,HBA1CHGB,Hemoglobin A1C/Hemoglobin,GLUCOSE METABOLISM,80.96,mmol/mol,,,80.96,80.95999999999998,mmol/mol,,,,59261-8,BLOOD,,,TREATMENT,1900,VISIT 19 (WEEK 17),2019-07-07,120
CDISC-TEST,LB,CDISC-TEST-013,574,588,HBA1CHGB,Hemoglobin A1C/Hemoglobin,GLUCOSE METABOLISM,58.95,mmol/mol,,,58.95,58.95,mmol/mol,,,,59261-8,BLOOD,,,TREATMENT,2000,VISIT 20 (WEEK 18),2019-07-14,127
CDISC-TEST,LB,CDISC-TEST-013,575,586,HBA1CHGB,Hemoglobin A1C/Hemoglobin,GLUCOSE METABOLISM,67.86,mmol/mol,,,67.86,67.86,mmol/mol,,,,59261-8,BLOOD,,,TREATMENT,2100,VISIT 21 (WEEK 19),2019-07-21,134
CDISC-TEST,LB,CDISC-TEST-013,576,590,HBA1CHGB,Hemoglobin A1C/Hemoglobin,GLUCOSE METABOLISM,66.26,mmol/mol,,,66.26,66.26,mmol/mol,,,,59261-8,BLOOD,,,TREATMENT,2200,VISIT 22 (WEEK 20),2019-07-28,141
CDISC-TEST,LB,CDISC-TEST-013,577,587,HBA1CHGB,Hemoglobin A1C/Hemoglobin,GLUCOSE METABOLISM,36.67,mmol/mol,,,36.67,36.67,mmol/mol,,,,59261-8,BLOOD,,,TREATMENT,2800,VISIT 28 (WEEK 26),2019-09-08,183
CDISC-TEST,LB,CDISC-TEST-013,578,557,HBA1CHGB,Hemoglobin A1C/Hemoglobin,GLUCOSE METABOLISM,39.39,mmol/mol,,,39.39,39.39,mmol/mol,,,,59261-8,BLOOD,,,FOLLOW-UP,2900,END OF TRIAL,2019-10-08,213
CDISC-TEST,LB,CDISC-TEST-013,579,574,HCT,Hematocrit,HAEMATOLOGY,50.82,%,,,50.82,50.82,%,,,,20570-8,BLOOD,,,SCREENING,100,VISIT 1 (WEEK -2),2019-02-23,-15
CDISC-TEST,LB,CDISC-TEST-013,580,584,HCT,Hematocrit,HAEMATOLOGY,42.08,%,,,42.08,42.08,%,,,,20570-8,BLOOD,,,TREATMENT,200,VISIT 2 (WEEK 0),2019-03-10,1
CDISC-TEST,LB,CDISC-TEST-013,581,597,HCT,Hematocrit,HAEMATOLOGY,53.7,%,,,53.7,53.7,%,,,,20570-8,BLOOD,,,TREATMENT,2200,VISIT 22 (WEEK 20),2019-07-28,141
CDISC-TEST,LB,CDISC-TEST-013,582,564,HCT,Hematocrit,HAEMATOLOGY,37.62,%,,,37.62,37.62,%,,,,20570-8,BLOOD,,,FOLLOW-UP,2900,END OF TRIAL,2019-10-08,213
CDISC-TEST,LB,CDISC-TEST-013,583,573,HDL,HDL Cholesterol,LIPIDS,1.27,mmol/L,,,1.27,1.27,mmol/L,,,,14646-4,SERUM,,,SCREENING,100,VISIT 1 (WEEK -2),2019-02-23,-15
CDISC-TEST,LB,CDISC-TEST-013,584,583,HDL,HDL Cholesterol,LIPIDS,0.86,mmol/L,,,0.86,0.86,mmol/L,,,,14646-4,SERUM,,,TREATMENT,200,VISIT 2 (WEEK 0),2019-03-10,1
CDISC-TEST,LB,CDISC-TEST-013,585,596,HDL,HDL Cholesterol,LIPIDS,1.69,mmol/L,,,1.69,1.69,mmol/L,,,,14646-4,SERUM,,,TREATMENT,2200,VISIT 22 (WEEK 20),2019-07-28,141
CDISC-TEST,LB,CDISC-TEST-013,586,563,HDL,HDL Cholesterol,LIPIDS,0.91,mmol/L,,,0.91,0.9099999999999999,mmol/L,,,,14646-4,SERUM,,,FOLLOW-UP,2900,END OF TRIAL,2019-10-08,213
CDISC-TEST,LB,CDISC-TEST-013,587,571,HGB,Hemoglobin,HAEMATOLOGY,7.77,mmol/L,,,7.77,7.77,mmol/L,,,,718-7,BLOOD,,,SCREENING,100,VISIT 1 (WEEK -2),2019-02-23,-15
CDISC-TEST,LB,CDISC-TEST-013,588,581,HGB,Hemoglobin,HAEMATOLOGY,9.42,mmol/L,,,9.42,9.42,mmol/L,,,,718-7,BLOOD,,,TREATMENT,200,VISIT 2 (WEEK 0),2019-03-10,1
CDISC-TEST,LB,CDISC-TEST-013,589,594,HGB,Hemoglobin,HAEMATOLOGY,7.74,mmol/L,,,7.74,7.74,mmol/L,,,,718-7,BLOOD,,,TREATMENT,2200,VISIT 22 (WEEK 20),2019-07-28,141
CDISC-TEST,LB,CDISC-TEST-013,590,561,HGB,Hemoglobin,HAEMATOLOGY,5.95,mmol/L,,,5.95,5.95,mmol/L,,,,718-7,BLOOD,,,FOLLOW-UP,2900,END OF TRIAL,2019-10-08,213
CDISC-TEST,LB,CDISC-TEST-013,591,570,LDL,LDL Cholesterol,LIPIDS,1.18,mmol/L,,,1.18,1.18,mmol/L,,,,22748-8,SERUM,,,SCREENING,100,VISIT 1 (WEEK -2),2019-02-23,-15
CDISC-TEST,LB,CDISC-TEST-013,592,580,LDL,LDL Cholesterol,LIPIDS,1.14,mmol/L,,,1.14,1.14,mmol/L,,,,22748-8,SERUM,,,TREATMENT,200,VISIT 2 (WEEK 0),2019-03-10,1
CDISC-TEST,LB,CDISC-TEST-013,593,593,LDL,LDL Cholesterol,LIPIDS,1.69,mmol/L,,,1.69,1.69,mmol/L,,,,22748-8,SERUM,,,TREATMENT,2200,VISIT 22 (WEEK 20),2019-07-28,141
CDISC-TEST,LB,CDISC-TEST-013,594,560,LDL,LDL Cholesterol,LIPIDS,2.02,mmol/L,,,2.02,2.02,mmol/L,,,,22748-8,SERUM,,,FOLLOW-UP,2900,END OF TRIAL,2019-10-08,213
CDISC-TEST,LB,CDISC-TEST-013,595,569,PLAT,Platelets,HAEMATOLOGY,205.92,10^9/L,,,205.92,205.92,10^9/L,,,,26515-7,BLOOD,,,SCREENING,100,VISIT 1 (WEEK -2),2019-02-23,-15
CDISC-TEST,LB,CDISC-TEST-013,596,579,PLAT,Platelets,HAEMATOLOGY,247.19,10^9/L,,,247.19,247.19,10^9/L,,,,26515-7,BLOOD,,,TREATMENT,200,VISIT 2 (WEEK 0),2019-03-10,1
CDISC-TEST,LB,CDISC-TEST-013,597,592,PLAT,Platelets,HAEMATOLOGY,260.4,10^9/L,,,260.4,260.4,10^9/L,,,,26515-7,BLOOD,,,TREATMENT,2200,VISIT 22 (WEEK 20),2019-07-28,141
CDISC-TEST,LB,CDISC-TEST-013,598,559,PLAT,Platelets,HAEMATOLOGY,275.62,10^9/L,,,275.62,275.62,10^9/L,,,,26515-7,BLOOD,,,FOLLOW-UP,2900,END OF TRIAL,2019-10-08,213
CDISC-TEST,LB,CDISC-TEST-014,599,607,ALB,Albumin,BIOCHEMISTRY,4.13,g/dL,,,4.13,4.13,g/dL,,,,1751-7,SERUM,,,SCREENING,100,VISIT 1 (WEEK -2),2019-02-03,-15
CDISC-TEST,LB,CDISC-TEST-014,600,617,ALB,Albumin,BIOCHEMISTRY,4.42,g/dL,,,4.42,4.42,g/dL,,,,1751-7,SERUM,,,TREATMENT,200,VISIT 2 (WEEK 0),2019-02-18,1
CDISC-TEST,LB,CDISC-TEST-014,601,643,ALB,Albumin,BIOCHEMISTRY,4.12,g/dL,,,4.12,4.12,g/dL,,,,1751-7,SERUM,,,TREATMENT,2200,VISIT 22 (WEEK 20),2019-07-08,141
CDISC-TEST,LB,CDISC-TEST-014,602,633,ALB,Albumin,BIOCHEMISTRY,3.72,g/dL,,,3.72,3.72,g/dL,,,,1751-7,SERUM,,,FOLLOW-UP,2900,END OF TRIAL,2019-09-18,213
CDISC-TEST,LB,CDISC-TEST-014,603,604,ALT,Alanine Aminotransferase,BIOCHEMISTRY,-4.29,U/L,,,-4.29,-4.29,U/L,,,,1742-6,SERUM,,,SCREENING,100,VISIT 1 (WEEK -2),2019-02-03,-15
CDISC-TEST,LB,CDISC-TEST-014,604,614,ALT,Alanine Aminotransferase,BIOCHEMISTRY,27.26,U/L,,,27.26,27.26,U/L,,,,1742-6,SERUM,,,TREATMENT,200,VISIT 2 (WEEK 0),2019-02-18,1
CDISC-TEST,LB,CDISC-TEST-014,605,640,ALT,Alanine Aminotransferase,BIOCHEMISTRY,43.53,U/L,,,43.53,43.53,U/L,,,,1742-6,SERUM,,,TREATMENT,2200,VISIT 22 (WEEK 20),2019-07-08,141
CDISC-TEST,LB,CDISC-TEST-014,606,630,ALT,Alanine Aminotransferase,BIOCHEMISTRY,17.06,U/L,,,17.06,17.06,U/L,,,,1742-6,SERUM,,,FOLLOW-UP,2900,END OF TRIAL,2019-09-18,213
CDISC-TEST,LB,CDISC-TEST-014,607,600,CHOL,Cholesterol,LIPIDS,3.78,mmol/L,,,3.78,3.78,mmol/L,,,,2093-3,SERUM,,,SCREENING,100,VISIT 1 (WEEK -2),2019-02-03,-15
CDISC-TEST,LB,CDISC-TEST-014,608,610,CHOL,Cholesterol,LIPIDS,4.4,mmol/L,,,4.4,4.4,mmol/L,,,,2093-3,SERUM,,,TREATMENT,200,VISIT 2 (WEEK 0),2019-02-18,1
CDISC-TEST,LB,CDISC-TEST-014,609,636,CHOL,Cholesterol,LIPIDS,4.16,mmol/L,,,4.16,4.16,mmol/L,,,,2093-3,SERUM,,,TREATMENT,2200,VISIT 22 (WEEK 20),2019-07-08,141
CDISC-TEST,LB,CDISC-TEST-014,610,626,CHOL,Cholesterol,LIPIDS,5.03,mmol/L,,,5.03,5.03,mmol/L,,,,2093-3,SERUM,,,FOLLOW-UP,2900,END OF TRIAL,2019-09-18,213
CDISC-TEST,LB,CDISC-TEST-014,611,599,CREAT,Creatinine,BIOCHEMISTRY,82.55,umol/L,,,82.55,82.55,umol/L,,,,14682-9,SERUM,,,SCREENING,100,VISIT 1 (WEEK -2),2019-02-03,-15
CDISC-TEST,LB,CDISC-TEST-014,612,608,CREAT,Creatinine,BIOCHEMISTRY,121.2,umol/L,,,121.2,121.2,umol/L,,,,14682-9,SERUM,,,TREATMENT,200,VISIT 2 (WEEK 0),2019-02-18,1
CDISC-TEST,LB,CDISC-TEST-014,613,634,CREAT,Creatinine,BIOCHEMISTRY,54.05,umol/L,,,54.05,54.05,umol/L,,,,14682-9,SERUM,,,TREATMENT,2200,VISIT 22 (WEEK 20),2019-07-08,141
CDISC-TEST,LB,CDISC-TEST-014,614,624,CREAT,Creatinine,BIOCHEMISTRY,124.5,umol/L,,,124.5,124.5,umol/L,,,,14682-9,SERUM,,,FOLLOW-UP,2900,END OF TRIAL,2019-09-18,213
CDISC-TEST,LB,CDISC-TEST-014,615,609,HBA1CHGB,Hemoglobin A1C/Hemoglobin,GLUCOSE METABOLISM,68.06,mmol/mol,,,68.06,68.06,mmol/mol,,,,59261-8,BLOOD,,,TREATMENT,200,VISIT 2 (WEEK 0),2019-02-18,1
CDISC-TEST,LB,CDISC-TEST-014,616,620,HBA1CHGB,Hemoglobin A1C/Hemoglobin,GLUCOSE METABOLISM,71.96,mmol/mol,,,71.96,71.96,mmol/mol,,,,59261-8,BLOOD,,,TREATMENT,300,VISIT 3 (WEEK 1),2019-02-25,8
CDISC-TEST,LB,CDISC-TEST-014,617,619,HBA1CHGB,Hemoglobin A1C/Hemoglobin,GLUCOSE METABOLISM,58.67,mmol/mol,,,58.67,58.67,mmol/mol,,,,59261-8,BLOOD,,,TREATMENT,900,VISIT 9 (WEEK 7),2019-04-08,50
CDISC-TEST,LB,CDISC-TEST-014,618,618,HBA1CHGB,Hemoglobin A1C/Hemoglobin,GLUCOSE METABOLISM,59.85,mmol/mol,,,59.85,59.85,mmol/mol,,,,59261-8,BLOOD,,,TREATMENT,1400,VISIT 14 (WEEK 12),2019-05-13,85
CDISC-TEST,LB,CDISC-TEST-014,619,644,HBA1CHGB,Hemoglobin A1C/Hemoglobin,GLUCOSE METABOLISM,62.49,mmol/mol,,,62.49,62.49,mmol/mol,,,,59261-8,BLOOD,,,TREATMENT,1900,VISIT 19 (WEEK 17),2019-06-17,120
CDISC-TEST,LB,CDISC-TEST-014,620,621,HBA1CHGB,Hemoglobin A1C/Hemoglobin,GLUCOSE METABOLISM,56.55,mmol/mol,,,56.55,56.55,mmol/mol,,,,59261-8,BLOOD,,,TREATMENT,2000,VISIT 20 (WEEK 18),2019-06-24,127
CDISC-TEST,LB,CDISC-TEST-014,621,622,HBA1CHGB,Hemoglobin A1C/Hemoglobin,GLUCOSE METABOLISM,59.26,mmol/mol,,,59.26,59.26,mmol/mol,,,,59261-8,BLOOD,,,TREATMENT,2100,VISIT 21 (WEEK 19),2019-07-01,134
CDISC-TEST,LB,CDISC-TEST-014,622,635,HBA1CHGB,Hemoglobin A1C/Hemoglobin,GLUCOSE METABOLISM,72.3,mmol/mol,,,72.3,72.3,mmol/mol,,,,59261-8,BLOOD,,,TREATMENT,2200,VISIT 22 (WEEK 20),2019-07-08,141
CDISC-TEST,LB,CDISC-TEST-014,623,623,HBA1CHGB,Hemoglobin A1C/Hemoglobin,GLUCOSE METABOLISM,62,mmol/mol,,,62,62,mmol/mol,,,,59261-8,BLOOD,,,TREATMENT,2800,VISIT 28 (WEEK 26),2019-08-19,183
CDISC-TEST,LB,CDISC-TEST-014,624,625,HBA1CHGB,Hemoglobin A1C/Hemoglobin,GLUCOSE METABOLISM,61.99,mmol/mol,,,61.99,61.99,mmol/mol,,,,59261-8,BLOOD,,,FOLLOW-UP,2900,END OF TRIAL,2019-09-18,213
CDISC-TEST,LB,CDISC-TEST-014,625,606,HCT,Hematocrit,HAEMATOLOGY,46.2,%,,,46.2,46.2,%,,,,20570-8,BLOOD,,,SCREENING,100,VISIT 1 (WEEK -2),2019-02-03,-15
CDISC-TEST,LB,CDISC-TEST-014,626,616,HCT,Hematocrit,HAEMATOLOGY,36.06,%,,,36.06,36.06,%,,,,20570-8,BLOOD,,,TREATMENT,200,VISIT 2 (WEEK 0),2019-02-18,1
CDISC-TEST,LB,CDISC-TEST-014,627,642,HCT,Hematocrit,HAEMATOLOGY,40.7,%,,,40.7,40.7,%,,,,20570-8,BLOOD,,,TREATMENT,2200,VISIT 22 (WEEK 20),2019-07-08,141
CDISC-TEST,LB,CDISC-TEST-014,628,632,HCT,Hematocrit,HAEMATOLOGY,35.43,%,,,35.43,35.43,%,,,,20570-8,BLOOD,,,FOLLOW-UP,2900,END OF TRIAL,2019-09-18,213
CDISC-TEST,LB,CDISC-TEST-014,629,605,HDL,HDL Cholesterol,LIPIDS,0.62,mmol/L,,,0.62,0.62,mmol/L,,,,14646-4,SERUM,,,SCREENING,100,VISIT 1 (WEEK -2),2019-02-03,-15
CDISC-TEST,LB,CDISC-TEST-014,630,615,HDL,HDL Cholesterol,LIPIDS,1.12,mmol/L,,,1.12,1.12,mmol/L,,,,14646-4,SERUM,,,TREATMENT,200,VISIT 2 (WEEK 0),2019-02-18,1
CDISC-TEST,LB,CDISC-TEST-014,631,641,HDL,HDL Cholesterol,LIPIDS,0.96,mmol/L,,,0.96,0.96,mmol/L,,,,14646-4,SERUM,,,TREATMENT,2200,VISIT 22 (WEEK 20),2019-07-08,141
CDISC-TEST,LB,CDISC-TEST-014,632,631,HDL,HDL Cholesterol,LIPIDS,2.07,mmol/L,,,2.07,2.07,mmol/L,,,,14646-4,SERUM,,,FOLLOW-UP,2900,END OF TRIAL,2019-09-18,213
CDISC-TEST,LB,CDISC-TEST-014,633,603,HGB,Hemoglobin,HAEMATOLOGY,8.94,mmol/L,,,8.94,8.94,mmol/L,,,,718-7,BLOOD,,,SCREENING,100,VISIT 1 (WEEK -2),2019-02-03,-15
CDISC-TEST,LB,CDISC-TEST-014,634,613,HGB,Hemoglobin,HAEMATOLOGY,7.76,mmol/L,,,7.76,7.76,mmol/L,,,,718-7,BLOOD,,,TREATMENT,200,VISIT 2 (WEEK 0),2019-02-18,1
CDISC-TEST,LB,CDISC-TEST-014,635,639,HGB,Hemoglobin,HAEMATOLOGY,7.66,mmol/L,,,7.66,7.66,mmol/L,,,,718-7,BLOOD,,,TREATMENT,2200,VISIT 22 (WEEK 20),2019-07-08,141
CDISC-TEST,LB,CDISC-TEST-014,636,629,HGB,Hemoglobin,HAEMATOLOGY,8.01,mmol/L,,,8.01,8.01,mmol/L,,,,718-7,BLOOD,,,FOLLOW-UP,2900,END OF TRIAL,2019-09-18,213
CDISC-TEST,LB,CDISC-TEST-014,637,602,LDL,LDL Cholesterol,LIPIDS,1.56,mmol/L,,,1.56,1.56,mmol/L,,,,22748-8,SERUM,,,SCREENING,100,VISIT 1 (WEEK -2),2019-02-03,-15
CDISC-TEST,LB,CDISC-TEST-014,638,612,LDL,LDL Cholesterol,LIPIDS,3.03,mmol/L,,,3.03,3.03,mmol/L,,,,22748-8,SERUM,,,TREATMENT,200,VISIT 2 (WEEK 0),2019-02-18,1
CDISC-TEST,LB,CDISC-TEST-014,639,638,LDL,LDL Cholesterol,LIPIDS,1.76,mmol/L,,,1.76,1.76,mmol/L,,,,22748-8,SERUM,,,TREATMENT,2200,VISIT 22 (WEEK 20),2019-07-08,141
CDISC-TEST,LB,CDISC-TEST-014,640,628,LDL,LDL Cholesterol,LIPIDS,3.01,mmol/L,,,3.01,3.01,mmol/L,,,,22748-8,SERUM,,,FOLLOW-UP,2900,END OF TRIAL,2019-09-18,213
CDISC-TEST,LB,CDISC-TEST-014,641,601,PLAT,Platelets,HAEMATOLOGY,295.43,10^9/L,,,295.43,295.43,10^9/L,,,,26515-7,BLOOD,,,SCREENING,100,VISIT 1 (WEEK -2),2019-02-03,-15
CDISC-TEST,LB,CDISC-TEST-014,642,611,PLAT,Platelets,HAEMATOLOGY,184.48,10^9/L,,,184.48,184.48,10^9/L,,,,26515-7,BLOOD,,,TREATMENT,200,VISIT 2 (WEEK 0),2019-02-18,1
CDISC-TEST,LB,CDISC-TEST-014,643,637,PLAT,Platelets,HAEMATOLOGY,294.16,10^9/L,,,294.16,294.16,10^9/L,,,,26515-7,BLOOD,,,TREATMENT,2200,VISIT 22 (WEEK 20),2019-07-08,141
CDISC-TEST,LB,CDISC-TEST-014,644,627,PLAT,Platelets,HAEMATOLOGY,257.35,10^9/L,,,257.35,257.35,10^9/L,,,,26515-7,BLOOD,,,FOLLOW-UP,2900,END OF TRIAL,2019-09-18,213
CDISC-TEST,LB,CDISC-TEST-015,645,678,ALB,Albumin,BIOCHEMISTRY,4.07,g/dL,,,4.07,4.07,g/dL,,,,1751-7,SERUM,,,SCREENING,100,VISIT 1 (WEEK -2),2019-01-14,-15
CDISC-TEST,LB,CDISC-TEST-015,646,654,ALB,Albumin,BIOCHEMISTRY,4.17,g/dL,,,4.17,4.17,g/dL,,,,1751-7,SERUM,,,TREATMENT,200,VISIT 2 (WEEK 0),2019-01-29,1
CDISC-TEST,LB,CDISC-TEST-015,647,689,ALB,Albumin,BIOCHEMISTRY,3.86,g/dL,,,3.86,3.86,g/dL,,,,1751-7,SERUM,,,TREATMENT,2200,VISIT 22 (WEEK 20),2019-06-18,141
CDISC-TEST,LB,CDISC-TEST-015,648,669,ALB,Albumin,BIOCHEMISTRY,4.06,g/dL,,,4.06,4.06,g/dL,,,,1751-7,SERUM,,,FOLLOW-UP,2900,END OF TRIAL,2019-08-29,213
CDISC-TEST,LB,CDISC-TEST-015,649,675,ALT,Alanine Aminotransferase,BIOCHEMISTRY,5.69,U/L,,,5.69,5.69,U/L,,,,1742-6,SERUM,,,SCREENING,100,VISIT 1 (WEEK -2),2019-01-14,-15
CDISC-TEST,LB,CDISC-TEST-015,650,651,ALT,Alanine Aminotransferase,BIOCHEMISTRY,50.26,U/L,,,50.26,50.26,U/L,,,,1742-6,SERUM,,,TREATMENT,200,VISIT 2 (WEEK 0),2019-01-29,1
CDISC-TEST,LB,CDISC-TEST-015,651,686,ALT,Alanine Aminotransferase,BIOCHEMISTRY,7.76,U/L,,,7.76,7.76,U/L,,,,1742-6,SERUM,,,TREATMENT,2200,VISIT 22 (WEEK 20),2019-06-18,141
CDISC-TEST,LB,CDISC-TEST-015,652,666,ALT,Alanine Aminotransferase,BIOCHEMISTRY,40.51,U/L,,,40.51,40.51,U/L,,,,1742-6,SERUM,,,FOLLOW-UP,2900,END OF TRIAL,2019-08-29,213
CDISC-TEST,LB,CDISC-TEST-015,653,671,CHOL,Cholesterol,LIPIDS,5.12,mmol/L,,,5.12,5.12,mmol/L,,,,2093-3,SERUM,,,SCREENING,100,VISIT 1 (WEEK -2),2019-01-14,-15
CDISC-TEST,LB,CDISC-TEST-015,654,647,CHOL,Cholesterol,LIPIDS,3.43,mmol/L,,,3.43,3.43,mmol/L,,,,2093-3,SERUM,,,TREATMENT,200,VISIT 2 (WEEK 0),2019-01-29,1
CDISC-TEST,LB,CDISC-TEST-015,655,682,CHOL,Cholesterol,LIPIDS,1.17,mmol/L,,,1.17,1.17,mmol/L,,,,2093-3,SERUM,,,TREATMENT,2200,VISIT 22 (WEEK 20),2019-06-18,141
CDISC-TEST,LB,CDISC-TEST-015,656,662,CHOL,Cholesterol,LIPIDS,4.56,mmol/L,,,4.56,4.56,mmol/L,,,,2093-3,SERUM,,,FOLLOW-UP,2900,END OF TRIAL,2019-08-29,213
CDISC-TEST,LB,CDISC-TEST-015,657,670,CREAT,Creatinine,BIOCHEMISTRY,44.98,umol/L,,,44.98,44.98,umol/L,,,,14682-9,SERUM,,,SCREENING,100,VISIT 1 (WEEK -2),2019-01-14,-15
CDISC-TEST,LB,CDISC-TEST-015,658,645,CREAT,Creatinine,BIOCHEMISTRY,152.19,umol/L,,,152.19,152.19,umol/L,,,,14682-9,SERUM,,,TREATMENT,200,VISIT 2 (WEEK 0),2019-01-29,1
CDISC-TEST,LB,CDISC-TEST-015,659,680,CREAT,Creatinine,BIOCHEMISTRY,82.44,umol/L,,,82.44,82.44,umol/L,,,,14682-9,SERUM,,,TREATMENT,2200,VISIT 22 (WEEK 20),2019-06-18,141
CDISC-TEST,LB,CDISC-TEST-015,660,660,CREAT,Creatinine,BIOCHEMISTRY,119.41,umol/L,,,119.41,119.41,umol/L,,,,14682-9,SERUM,,,FOLLOW-UP,2900,END OF TRIAL,2019-08-29,213
CDISC-TEST,LB,CDISC-TEST-015,661,646,HBA1CHGB,Hemoglobin A1C/Hemoglobin,GLUCOSE METABOLISM,83.42,mmol/mol,,,83.42,83.42,mmol/mol,,,,59261-8,BLOOD,,,TREATMENT,200,VISIT 2 (WEEK 0),2019-01-29,1
CDISC-TEST,LB,CDISC-TEST-015,662,657,HBA1CHGB,Hemoglobin A1C/Hemoglobin,GLUCOSE METABOLISM,99.52,mmol/mol,,,99.52,99.52,mmol/mol,,,,59261-8,BLOOD,,,TREATMENT,300,VISIT 3 (WEEK 1),2019-02-05,8
CDISC-TEST,LB,CDISC-TEST-015,663,655,HBA1CHGB,Hemoglobin A1C/Hemoglobin,GLUCOSE METABOLISM,55.22,mmol/mol,,,55.22,55.22,mmol/mol,,,,59261-8,BLOOD,,,TREATMENT,900,VISIT 9 (WEEK 7),2019-03-19,50
CDISC-TEST,LB,CDISC-TEST-015,664,658,HBA1CHGB,Hemoglobin A1C/Hemoglobin,GLUCOSE METABOLISM,71.16,mmol/mol,,,71.16,71.16,mmol/mol,,,,59261-8,BLOOD,,,TREATMENT,1400,VISIT 14 (WEEK 12),2019-04-23,85
CDISC-TEST,LB,CDISC-TEST-015,665,659,HBA1CHGB,Hemoglobin A1C/Hemoglobin,GLUCOSE METABOLISM,104,mmol/mol,,,104,104,mmol/mol,,,,59261-8,BLOOD,,,TREATMENT,1900,VISIT 19 (WEEK 17),2019-05-28,120
CDISC-TEST,LB,CDISC-TEST-015,666,656,HBA1CHGB,Hemoglobin A1C/Hemoglobin,GLUCOSE METABOLISM,45.65,mmol/mol,,,45.65,45.65,mmol/mol,,,,59261-8,BLOOD,,,TREATMENT,2000,VISIT 20 (WEEK 18),2019-06-04,127
CDISC-TEST,LB,CDISC-TEST-015,667,679,HBA1CHGB,Hemoglobin A1C/Hemoglobin,GLUCOSE METABOLISM,57.92,mmol/mol,,,57.92,57.92,mmol/mol,,,,59261-8,BLOOD,,,TREATMENT,2100,VISIT 21 (WEEK 19),2019-06-11,134
CDISC-TEST,LB,CDISC-TEST-015,668,681,HBA1CHGB,Hemoglobin A1C/Hemoglobin,GLUCOSE METABOLISM,76.35,mmol/mol,,,76.35,76.34999999999998,mmol/mol,,,,59261-8,BLOOD,,,TREATMENT,2200,VISIT 22 (WEEK 20),2019-06-18,141
CDISC-TEST,LB,CDISC-TEST-015,669,690,HBA1CHGB,Hemoglobin A1C/Hemoglobin,GLUCOSE METABOLISM,74.69,mmol/mol,,,74.69,74.69,mmol/mol,,,,59261-8,BLOOD,,,TREATMENT,2800,VISIT 28 (WEEK 26),2019-07-30,183
CDISC-TEST,LB,CDISC-TEST-015,670,661,HBA1CHGB,Hemoglobin A1C/Hemoglobin,GLUCOSE METABOLISM,66.32,mmol/mol,,,66.32,66.32,mmol/mol,,,,59261-8,BLOOD,,,FOLLOW-UP,2900,END OF TRIAL,2019-08-29,213
CDISC-TEST,LB,CDISC-TEST-015,671,677,HCT,Hematocrit,HAEMATOLOGY,42.09,%,,,42.09,42.09,%,,,,20570-8,BLOOD,,,SCREENING,100,VISIT 1 (WEEK -2),2019-01-14,-15
CDISC-TEST,LB,CDISC-TEST-015,672,653,HCT,Hematocrit,HAEMATOLOGY,39.69,%,,,39.69,39.69,%,,,,20570-8,BLOOD,,,TREATMENT,200,VISIT 2 (WEEK 0),2019-01-29,1
CDISC-TEST,LB,CDISC-TEST-015,673,688,HCT,Hematocrit,HAEMATOLOGY,38.4,%,,,38.4,38.4,%,,,,20570-8,BLOOD,,,TREATMENT,2200,VISIT 22 (WEEK 20),2019-06-18,141
CDISC-TEST,LB,CDISC-TEST-015,674,668,HCT,Hematocrit,HAEMATOLOGY,42.48,%,,,42.48,42.48,%,,,,20570-8,BLOOD,,,FOLLOW-UP,2900,END OF TRIAL,2019-08-29,213
CDISC-TEST,LB,CDISC-TEST-015,675,676,HDL,HDL Cholesterol,LIPIDS,1.47,mmol/L,,,1.47,1.47,mmol/L,,,,14646-4,SERUM,,,SCREENING,100,VISIT 1 (WEEK -2),2019-01-14,-15
CDISC-TEST,LB,CDISC-TEST-015,676,652,HDL,HDL Cholesterol,LIPIDS,1.13,mmol/L,,,1.13,1.13,mmol/L,,,,14646-4,SERUM,,,TREATMENT,200,VISIT 2 (WEEK 0),2019-01-29,1
CDISC-TEST,LB,CDISC-TEST-015,677,687,HDL,HDL Cholesterol,LIPIDS,1.05,mmol/L,,,1.05,1.05,mmol/L,,,,14646-4,SERUM,,,TREATMENT,2200,VISIT 22 (WEEK 20),2019-06-18,141
CDISC-TEST,LB,CDISC-TEST-015,678,667,HDL,HDL Cholesterol,LIPIDS,1.03,mmol/L,,,1.03,1.03,mmol/L,,,,14646-4,SERUM,,,FOLLOW-UP,2900,END OF TRIAL,2019-08-29,213
CDISC-TEST,LB,CDISC-TEST-015,679,674,HGB,Hemoglobin,HAEMATOLOGY,8.48,mmol/L,,,8.48,8.48,mmol/L,,,,718-7,BLOOD,,,SCREENING,100,VISIT 1 (WEEK -2),2019-01-14,-15
CDISC-TEST,LB,CDISC-TEST-015,680,650,HGB,Hemoglobin,HAEMATOLOGY,10.24,mmol/L,,,10.24,10.24,mmol/L,,,,718-7,BLOOD,,,TREATMENT,200,VISIT 2 (WEEK 0),2019-01-29,1
CDISC-TEST,LB,CDISC-TEST-015,681,685,HGB,Hemoglobin,HAEMATOLOGY,7.73,mmol/L,,,7.73,7.73,mmol/L,,,,718-7,BLOOD,,,TREATMENT,2200,VISIT 22 (WEEK 20),2019-06-18,141
CDISC-TEST,LB,CDISC-TEST-015,682,665,HGB,Hemoglobin,HAEMATOLOGY,8.71,mmol/L,,,8.71,8.71,mmol/L,,,,718-7,BLOOD,,,FOLLOW-UP,2900,END OF TRIAL,2019-08-29,213
CDISC-TEST,LB,CDISC-TEST-015,683,673,LDL,LDL Cholesterol,LIPIDS,3.51,mmol/L,,,3.51,3.51,mmol/L,,,,22748-8,SERUM,,,SCREENING,100,VISIT 1 (WEEK -2),2019-01-14,-15
CDISC-TEST,LB,CDISC-TEST-015,684,649,LDL,LDL Cholesterol,LIPIDS,2.87,mmol/L,,,2.87,2.87,mmol/L,,,,22748-8,SERUM,,,TREATMENT,200,VISIT 2 (WEEK 0),2019-01-29,1
CDISC-TEST,LB,CDISC-TEST-015,685,684,LDL,LDL Cholesterol,LIPIDS,2.87,mmol/L,,,2.87,2.87,mmol/L,,,,22748-8,SERUM,,,TREATMENT,2200,VISIT 22 (WEEK 20),2019-06-18,141
CDISC-TEST,LB,CDISC-TEST-015,686,664,LDL,LDL Cholesterol,LIPIDS,2.6,mmol/L,,,2.6,2.6,mmol/L,,,,22748-8,SERUM,,,FOLLOW-UP,2900,END OF TRIAL,2019-08-29,213
CDISC-TEST,LB,CDISC-TEST-015,687,672,PLAT,Platelets,HAEMATOLOGY,216.84,10^9/L,,,216.84,216.84,10^9/L,,,,26515-7,BLOOD,,,SCREENING,100,VISIT 1 (WEEK -2),2019-01-14,-15
CDISC-TEST,LB,CDISC-TEST-015,688,648,PLAT,Platelets,HAEMATOLOGY,350.3,10^9/L,,,350.3,350.3,10^9/L,,,,26515-7,BLOOD,,,TREATMENT,200,VISIT 2 (WEEK 0),2019-01-29,1
CDISC-TEST,LB,CDISC-TEST-015,689,683,PLAT,Platelets,HAEMATOLOGY,364.81,10^9/L,,,364.81,364.81,10^9/L,,,,26515-7,BLOOD,,,TREATMENT,2200,VISIT 22 (WEEK 20),2019-06-18,141
CDISC-TEST,LB,CDISC-TEST-015,690,663,PLAT,Platelets,HAEMATOLOGY,210.67,10^9/L,,,210.67,210.67,10^9/L,,,,26515-7,BLOOD,,,FOLLOW-UP,2900,END OF TRIAL,2019-08-29,213
CDISC-TEST,LB,CDISC-TEST-016,691,715,ALB,Albumin,BIOCHEMISTRY,4.13,g/dL,,,4.13,4.13,g/dL,,,,1751-7,SERUM,,,SCREENING,100,VISIT 1 (WEEK -2),2019-02-15,-15
CDISC-TEST,LB,CDISC-TEST-016,692,705,ALB,Albumin,BIOCHEMISTRY,4.01,g/dL,,,4.01,4.01,g/dL,,,,1751-7,SERUM,,,TREATMENT,200,VISIT 2 (WEEK 0),2019-03-02,1
CDISC-TEST,LB,CDISC-TEST-016,693,725,ALB,Albumin,BIOCHEMISTRY,4.39,g/dL,,,4.39,4.39,g/dL,,,,1751-7,SERUM,,,TREATMENT,2200,VISIT 22 (WEEK 20),2019-07-20,141
CDISC-TEST,LB,CDISC-TEST-016,694,736,ALB,Albumin,BIOCHEMISTRY,4.44,g/dL,,,4.44,4.44,g/dL,,,,1751-7,SERUM,,,FOLLOW-UP,2900,END OF TRIAL,2019-09-30,213
CDISC-TEST,LB,CDISC-TEST-016,695,712,ALT,Alanine Aminotransferase,BIOCHEMISTRY,49.27,U/L,,,49.27,49.27,U/L,,,,1742-6,SERUM,,,SCREENING,100,VISIT 1 (WEEK -2),2019-02-15,-15
CDISC-TEST,LB,CDISC-TEST-016,696,702,ALT,Alanine Aminotransferase,BIOCHEMISTRY,45.43,U/L,,,45.43,45.43,U/L,,,,1742-6,SERUM,,,TREATMENT,200,VISIT 2 (WEEK 0),2019-03-02,1
CDISC-TEST,LB,CDISC-TEST-016,697,722,ALT,Alanine Aminotransferase,BIOCHEMISTRY,18.15,U/L,,,18.15,18.15,U/L,,,,1742-6,SERUM,,,TREATMENT,2200,VISIT 22 (WEEK 20),2019-07-20,141
CDISC-TEST,LB,CDISC-TEST-016,698,733,ALT,Alanine Aminotransferase,BIOCHEMISTRY,27.62,U/L,,,27.62,27.62,U/L,,,,1742-6,SERUM,,,FOLLOW-UP,2900,END OF TRIAL,2019-09-30,213
CDISC-TEST,LB,CDISC-TEST-016,699,708,CHOL,Cholesterol,LIPIDS,3.77,mmol/L,,,3.77,3.77,mmol/L,,,,2093-3,SERUM,,,SCREENING,100,VISIT 1 (WEEK -2),2019-02-15,-15
CDISC-TEST,LB,CDISC-TEST-016,700,698,CHOL,Cholesterol,LIPIDS,3.53,mmol/L,,,3.53,3.53,mmol/L,,,,2093-3,SERUM,,,TREATMENT,200,VISIT 2 (WEEK 0),2019-03-02,1
CDISC-TEST,LB,CDISC-TEST-016,701,718,CHOL,Cholesterol,LIPIDS,2.85,mmol/L,,,2.85,2.85,mmol/L,,,,2093-3,SERUM,,,TREATMENT,2200,VISIT 22 (WEEK 20),2019-07-20,141
CDISC-TEST,LB,CDISC-TEST-016,702,729,CHOL,Cholesterol,LIPIDS,3.4,mmol/L,,,3.4,3.4,mmol/L,,,,2093-3,SERUM,,,FOLLOW-UP,2900,END OF TRIAL,2019-09-30,213
CDISC-TEST,LB,CDISC-TEST-016,703,707,CREAT,Creatinine,BIOCHEMISTRY,85.87,umol/L,,,85.87,85.87,umol/L,,,,14682-9,SERUM,,,SCREENING,100,VISIT 1 (WEEK -2),2019-02-15,-15
CDISC-TEST,LB,CDISC-TEST-016,704,696,CREAT,Creatinine,BIOCHEMISTRY,74.15,umol/L,,,74.15,74.15,umol/L,,,,14682-9,SERUM,,,TREATMENT,200,VISIT 2 (WEEK 0),2019-03-02,1
CDISC-TEST,LB,CDISC-TEST-016,705,716,CREAT,Creatinine,BIOCHEMISTRY,51.72,umol/L,,,51.72,51.72,umol/L,,,,14682-9,SERUM,,,TREATMENT,2200,VISIT 22 (WEEK 20),2019-07-20,141
CDISC-TEST,LB,CDISC-TEST-016,706,727,CREAT,Creatinine,BIOCHEMISTRY,125.34,umol/L,,,125.34,125.34,umol/L,,,,14682-9,SERUM,,,FOLLOW-UP,2900,END OF TRIAL,2019-09-30,213
CDISC-TEST,LB,CDISC-TEST-016,707,697,HBA1CHGB,Hemoglobin A1C/Hemoglobin,GLUCOSE METABOLISM,93.08,mmol/mol,,,93.08,93.08,mmol/mol,,,,59261-8,BLOOD,,,TREATMENT,200,VISIT 2 (WEEK 0),2019-03-02,1
CDISC-TEST,LB,CDISC-TEST-016,708,691,HBA1CHGB,Hemoglobin A1C/Hemoglobin,GLUCOSE METABOLISM,67.27,mmol/mol,,,67.27,67.27,mmol/mol,,,,59261-8,BLOOD,,,TREATMENT,300,VISIT 3 (WEEK 1),2019-03-09,8
CDISC-TEST,LB,CDISC-TEST-016,709,694,HBA1CHGB,Hemoglobin A1C/Hemoglobin,GLUCOSE METABOLISM,91.76,mmol/mol,,,91.76,91.76,mmol/mol,,,,59261-8,BLOOD,,,TREATMENT,900,VISIT 9 (WEEK 7),2019-04-20,50
CDISC-TEST,LB,CDISC-TEST-016,710,693,HBA1CHGB,Hemoglobin A1C/Hemoglobin,GLUCOSE METABOLISM,67.78,mmol/mol,,,67.78,67.78,mmol/mol,,,,59261-8,BLOOD,,,TREATMENT,1400,VISIT 14 (WEEK 12),2019-05-25,85
CDISC-TEST,LB,CDISC-TEST-016,711,726,HBA1CHGB,Hemoglobin A1C/Hemoglobin,GLUCOSE METABOLISM,69.38,mmol/mol,,,69.38,69.38,mmol/mol,,,,59261-8,BLOOD,,,TREATMENT,1900,VISIT 19 (WEEK 17),2019-06-29,120
CDISC-TEST,LB,CDISC-TEST-016,712,695,HBA1CHGB,Hemoglobin A1C/Hemoglobin,GLUCOSE METABOLISM,43.16,mmol/mol,,,43.16,43.16,mmol/mol,,,,59261-8,BLOOD,,,TREATMENT,2000,VISIT 20 (WEEK 18),2019-07-06,127
CDISC-TEST,LB,CDISC-TEST-016,713,692,HBA1CHGB,Hemoglobin A1C/Hemoglobin,GLUCOSE METABOLISM,33.69,mmol/mol,,,33.69,33.69,mmol/mol,,,,59261-8,BLOOD,,,TREATMENT,2100,VISIT 21 (WEEK 19),2019-07-13,134
CDISC-TEST,LB,CDISC-TEST-016,714,717,HBA1CHGB,Hemoglobin A1C/Hemoglobin,GLUCOSE METABOLISM,61.57,mmol/mol,,,61.57,61.57,mmol/mol,,,,59261-8,BLOOD,,,TREATMENT,2200,VISIT 22 (WEEK 20),2019-07-20,141
CDISC-TEST,LB,CDISC-TEST-016,715,706,HBA1CHGB,Hemoglobin A1C/Hemoglobin,GLUCOSE METABOLISM,59.85,mmol/mol,,,59.85,59.85,mmol/mol,,,,59261-8,BLOOD,,,TREATMENT,2800,VISIT 28 (WEEK 26),2019-08-31,183
CDISC-TEST,LB,CDISC-TEST-016,716,728,HBA1CHGB,Hemoglobin A1C/Hemoglobin,GLUCOSE METABOLISM,56.84,mmol/mol,,,56.84,56.84,mmol/mol,,,,59261-8,BLOOD,,,FOLLOW-UP,2900,END OF TRIAL,2019-09-30,213
CDISC-TEST,LB,CDISC-TEST-016,717,714,HCT,Hematocrit,HAEMATOLOGY,42.87,%,,,42.87,42.87,%,,,,20570-8,BLOOD,,,SCREENING,100,VISIT 1 (WEEK -2),2019-02-15,-15
CDISC-TEST,LB,CDISC-TEST-016,718,704,HCT,Hematocrit,HAEMATOLOGY,38.11,%,,,38.11,38.11,%,,,,20570-8,BLOOD,,,TREATMENT,200,VISIT 2 (WEEK 0),2019-03-02,1
CDISC-TEST,LB,CDISC-TEST-016,719,724,HCT,Hematocrit,HAEMATOLOGY,37.96,%,,,37.96,37.96,%,,,,20570-8,BLOOD,,,TREATMENT,2200,VISIT 22 (WEEK 20),2019-07-20,141
CDISC-TEST,LB,CDISC-TEST-016,720,735,HCT,Hematocrit,HAEMATOLOGY,43.81,%,,,43.81,43.81,%,,,,20570-8,BLOOD,,,FOLLOW-UP,2900,END OF TRIAL,2019-09-30,213
CDISC-TEST,LB,CDISC-TEST-016,721,713,HDL,HDL Cholesterol,LIPIDS,1.37,mmol/L,,,1.37,1.37,mmol/L,,,,14646-4,SERUM,,,SCREENING,100,VISIT 1 (WEEK -2),2019-02-15,-15
CDISC-TEST,LB,CDISC-TEST-016,722,703,HDL,HDL Cholesterol,LIPIDS,0.87,mmol/L,,,0.87,0.8699999999999999,mmol/L,,,,14646-4,SERUM,,,TREATMENT,200,VISIT 2 (WEEK 0),2019-03-02,1
CDISC-TEST,LB,CDISC-TEST-016,723,723,HDL,HDL Cholesterol,LIPIDS,1.34,mmol/L,,,1.34,1.34,mmol/L,,,,14646-4,SERUM,,,TREATMENT,2200,VISIT 22 (WEEK 20),2019-07-20,141
CDISC-TEST,LB,CDISC-TEST-016,724,734,HDL,HDL Cholesterol,LIPIDS,1.3,mmol/L,,,1.3,1.3,mmol/L,,,,14646-4,SERUM,,,FOLLOW-UP,2900,END OF TRIAL,2019-09-30,213
CDISC-TEST,LB,CDISC-TEST-016,725,711,HGB,Hemoglobin,HAEMATOLOGY,7.87,mmol/L,,,7.87,7.87,mmol/L,,,,718-7,BLOOD,,,SCREENING,100,VISIT 1 (WEEK -2),2019-02-15,-15
CDISC-TEST,LB,CDISC-TEST-016,726,701,HGB,Hemoglobin,HAEMATOLOGY,7.31,mmol/L,,,7.31,7.31,mmol/L,,,,718-7,BLOOD,,,TREATMENT,200,VISIT 2 (WEEK 0),2019-03-02,1
CDISC-TEST,LB,CDISC-TEST-016,727,721,HGB,Hemoglobin,HAEMATOLOGY,7,mmol/L,,,7,7,mmol/L,,,,718-7,BLOOD,,,TREATMENT,2200,VISIT 22 (WEEK 20),2019-07-20,141
CDISC-TEST,LB,CDISC-TEST-016,728,732,HGB,Hemoglobin,HAEMATOLOGY,7.96,mmol/L,,,7.96,7.96,mmol/L,,,,718-7,BLOOD,,,FOLLOW-UP,2900,END OF TRIAL,2019-09-30,213
CDISC-TEST,LB,CDISC-TEST-016,729,710,LDL,LDL Cholesterol,LIPIDS,2.02,mmol/L,,,2.02,2.02,mmol/L,,,,22748-8,SERUM,,,SCREENING,100,VISIT 1 (WEEK -2),2019-02-15,-15
CDISC-TEST,LB,CDISC-TEST-016,730,700,LDL,LDL Cholesterol,LIPIDS,2.91,mmol/L,,,2.91,2.91,mmol/L,,,,22748-8,SERUM,,,TREATMENT,200,VISIT 2 (WEEK 0),2019-03-02,1
CDISC-TEST,LB,CDISC-TEST-016,731,720,LDL,LDL Cholesterol,LIPIDS,2.82,mmol/L,,,2.82,2.82,mmol/L,,,,22748-8,SERUM,,,TREATMENT,2200,VISIT 22 (WEEK 20),2019-07-20,141
CDISC-TEST,LB,CDISC-TEST-016,732,731,LDL,LDL Cholesterol,LIPIDS,1.02,mmol/L,,,1.02,1.02,mmol/L,,,,22748-8,SERUM,,,FOLLOW-UP,2900,END OF TRIAL,2019-09-30,213
CDISC-TEST,LB,CDISC-TEST-016,733,709,PLAT,Platelets,HAEMATOLOGY,222.37,10^9/L,,,222.37,222.37,10^9/L,,,,26515-7,BLOOD,,,SCREENING,100,VISIT 1 (WEEK -2),2019-02-15,-15
CDISC-TEST,LB,CDISC-TEST-016,734,699,PLAT,Platelets,HAEMATOLOGY,355.8,10^9/L,,,355.8,355.8,10^9/L,,,,26515-7,BLOOD,,,TREATMENT,200,VISIT 2 (WEEK 0),2019-03-02,1
CDISC-TEST,LB,CDISC-TEST-016,735,719,PLAT,Platelets,HAEMATOLOGY,290.07,10^9/L,,,290.07,290.07,10^9/L,,,,26515-7,BLOOD,,,TREATMENT,2200,VISIT 22 (WEEK 20),2019-07-20,141
CDISC-TEST,LB,CDISC-TEST-016,736,730,PLAT,Platelets,HAEMATOLOGY,123.18,10^9/L,,,123.18,123.18,10^9/L,,,,26515-7,BLOOD,,,FOLLOW-UP,2900,END OF TRIAL,2019-09-30,213
CDISC-TEST,LB,CDISC-TEST-017,737,748,ALB,Albumin,BIOCHEMISTRY,4.5,g/dL,,,4.5,4.5,g/dL,,,,1751-7,SERUM,,,SCREENING,100,VISIT 1 (WEEK -2),2019-01-25,-15
CDISC-TEST,LB,CDISC-TEST-017,738,759,ALB,Albumin,BIOCHEMISTRY,4.12,g/dL,,,4.12,4.12,g/dL,,,,1751-7,SERUM,,,TREATMENT,200,VISIT 2 (WEEK 0),2019-02-09,1
CDISC-TEST,LB,CDISC-TEST-017,739,779,ALB,Albumin,BIOCHEMISTRY,3.91,g/dL,,,3.91,3.91,g/dL,,,,1751-7,SERUM,,,TREATMENT,2200,VISIT 22 (WEEK 20),2019-06-29,141
CDISC-TEST,LB,CDISC-TEST-017,740,769,ALB,Albumin,BIOCHEMISTRY,4.18,g/dL,,,4.18,4.18,g/dL,,,,1751-7,SERUM,,,FOLLOW-UP,2900,END OF TRIAL,2019-09-09,213
CDISC-TEST,LB,CDISC-TEST-017,741,745,ALT,Alanine Aminotransferase,BIOCHEMISTRY,48.37,U/L,,,48.37,48.37,U/L,,,,1742-6,SERUM,,,SCREENING,100,VISIT 1 (WEEK -2),2019-01-25,-15
CDISC-TEST,LB,CDISC-TEST-017,742,756,ALT,Alanine Aminotransferase,BIOCHEMISTRY,-15.87,U/L,,,-15.87,-15.87,U/L,,,,1742-6,SERUM,,,TREATMENT,200,VISIT 2 (WEEK 0),2019-02-09,1
CDISC-TEST,LB,CDISC-TEST-017,743,776,ALT,Alanine Aminotransferase,BIOCHEMISTRY,22.54,U/L,,,22.54,22.54,U/L,,,,1742-6,SERUM,,,TREATMENT,2200,VISIT 22 (WEEK 20),2019-06-29,141
CDISC-TEST,LB,CDISC-TEST-017,744,766,ALT,Alanine Aminotransferase,BIOCHEMISTRY,34.72,U/L,,,34.72,34.72,U/L,,,,1742-6,SERUM,,,FOLLOW-UP,2900,END OF TRIAL,2019-09-09,213
CDISC-TEST,LB,CDISC-TEST-017,745,741,CHOL,Cholesterol,LIPIDS,4.25,mmol/L,,,4.25,4.25,mmol/L,,,,2093-3,SERUM,,,SCREENING,100,VISIT 1 (WEEK -2),2019-01-25,-15
CDISC-TEST,LB,CDISC-TEST-017,746,752,CHOL,Cholesterol,LIPIDS,4.42,mmol/L,,,4.42,4.42,mmol/L,,,,2093-3,SERUM,,,TREATMENT,200,VISIT 2 (WEEK 0),2019-02-09,1
CDISC-TEST,LB,CDISC-TEST-017,747,772,CHOL,Cholesterol,LIPIDS,5.28,mmol/L,,,5.28,5.28,mmol/L,,,,2093-3,SERUM,,,TREATMENT,2200,VISIT 22 (WEEK 20),2019-06-29,141
CDISC-TEST,LB,CDISC-TEST-017,748,762,CHOL,Cholesterol,LIPIDS,4.52,mmol/L,,,4.52,4.52,mmol/L,,,,2093-3,SERUM,,,FOLLOW-UP,2900,END OF TRIAL,2019-09-09,213
CDISC-TEST,LB,CDISC-TEST-017,749,740,CREAT,Creatinine,BIOCHEMISTRY,58.77,umol/L,,,58.77,58.77,umol/L,,,,14682-9,SERUM,,,SCREENING,100,VISIT 1 (WEEK -2),2019-01-25,-15
CDISC-TEST,LB,CDISC-TEST-017,750,750,CREAT,Creatinine,BIOCHEMISTRY,145.56,umol/L,,,145.56,145.56,umol/L,,,,14682-9,SERUM,,,TREATMENT,200,VISIT 2 (WEEK 0),2019-02-09,1
CDISC-TEST,LB,CDISC-TEST-017,751,770,CREAT,Creatinine,BIOCHEMISTRY,168.2,umol/L,,,168.2,168.2,umol/L,,,,14682-9,SERUM,,,TREATMENT,2200,VISIT 22 (WEEK 20),2019-06-29,141
CDISC-TEST,LB,CDISC-TEST-017,752,760,CREAT,Creatinine,BIOCHEMISTRY,97.05,umol/L,,,97.05,97.05,umol/L,,,,14682-9,SERUM,,,FOLLOW-UP,2900,END OF TRIAL,2019-09-09,213
CDISC-TEST,LB,CDISC-TEST-017,753,751,HBA1CHGB,Hemoglobin A1C/Hemoglobin,GLUCOSE METABOLISM,64.67,mmol/mol,,,64.67,64.67,mmol/mol,,,,59261-8,BLOOD,,,TREATMENT,200,VISIT 2 (WEEK 0),2019-02-09,1
CDISC-TEST,LB,CDISC-TEST-017,754,739,HBA1CHGB,Hemoglobin A1C/Hemoglobin,GLUCOSE METABOLISM,92.29,mmol/mol,,,92.29,92.29,mmol/mol,,,,59261-8,BLOOD,,,TREATMENT,300,VISIT 3 (WEEK 1),2019-02-16,8
CDISC-TEST,LB,CDISC-TEST-017,755,749,HBA1CHGB,Hemoglobin A1C/Hemoglobin,GLUCOSE METABOLISM,37.96,mmol/mol,,,37.96,37.96,mmol/mol,,,,59261-8,BLOOD,,,TREATMENT,900,VISIT 9 (WEEK 7),2019-03-30,50
CDISC-TEST,LB,CDISC-TEST-017,756,738,HBA1CHGB,Hemoglobin A1C/Hemoglobin,GLUCOSE METABOLISM,60.25,mmol/mol,,,60.25,60.25,mmol/mol,,,,59261-8,BLOOD,,,TREATMENT,1400,VISIT 14 (WEEK 12),2019-05-04,85
CDISC-TEST,LB,CDISC-TEST-017,757,781,HBA1CHGB,Hemoglobin A1C/Hemoglobin,GLUCOSE METABOLISM,69.27,mmol/mol,,,69.27,69.27,mmol/mol,,,,59261-8,BLOOD,,,TREATMENT,1900,VISIT 19 (WEEK 17),2019-06-08,120
CDISC-TEST,LB,CDISC-TEST-017,758,782,HBA1CHGB,Hemoglobin A1C/Hemoglobin,GLUCOSE METABOLISM,54.41,mmol/mol,,,54.41,54.41,mmol/mol,,,,59261-8,BLOOD,,,TREATMENT,2000,VISIT 20 (WEEK 18),2019-06-15,127
CDISC-TEST,LB,CDISC-TEST-017,759,737,HBA1CHGB,Hemoglobin A1C/Hemoglobin,GLUCOSE METABOLISM,61.74,mmol/mol,,,61.74,61.74,mmol/mol,,,,59261-8,BLOOD,,,TREATMENT,2100,VISIT 21 (WEEK 19),2019-06-22,134
CDISC-TEST,LB,CDISC-TEST-017,760,771,HBA1CHGB,Hemoglobin A1C/Hemoglobin,GLUCOSE METABOLISM,59.85,mmol/mol,,,59.85,59.85,mmol/mol,,,,59261-8,BLOOD,,,TREATMENT,2200,VISIT 22 (WEEK 20),2019-06-29,141
CDISC-TEST,LB,CDISC-TEST-017,761,780,HBA1CHGB,Hemoglobin A1C/Hemoglobin,GLUCOSE METABOLISM,72.22,mmol/mol,,,72.22,72.22,mmol/mol,,,,59261-8,BLOOD,,,TREATMENT,2800,VISIT 28 (WEEK 26),2019-08-10,183
CDISC-TEST,LB,CDISC-TEST-017,762,761,HBA1CHGB,Hemoglobin A1C/Hemoglobin,GLUCOSE METABOLISM,65.74,mmol/mol,,,65.74,65.74,mmol/mol,,,,59261-8,BLOOD,,,FOLLOW-UP,2900,END OF TRIAL,2019-09-09,213
CDISC-TEST,LB,CDISC-TEST-017,763,747,HCT,Hematocrit,HAEMATOLOGY,37.28,%,,,37.28,37.28,%,,,,20570-8,BLOOD,,,SCREENING,100,VISIT 1 (WEEK -2),2019-01-25,-15
CDISC-TEST,LB,CDISC-TEST-017,764,758,HCT,Hematocrit,HAEMATOLOGY,41.59,%,,,41.59,41.59,%,,,,20570-8,BLOOD,,,TREATMENT,200,VISIT 2 (WEEK 0),2019-02-09,1
CDISC-TEST,LB,CDISC-TEST-017,765,778,HCT,Hematocrit,HAEMATOLOGY,45.91,%,,,45.91,45.91,%,,,,20570-8,BLOOD,,,TREATMENT,2200,VISIT 22 (WEEK 20),2019-06-29,141
CDISC-TEST,LB,CDISC-TEST-017,766,768,HCT,Hematocrit,HAEMATOLOGY,34.49,%,,,34.49,34.49,%,,,,20570-8,BLOOD,,,FOLLOW-UP,2900,END OF TRIAL,2019-09-09,213
CDISC-TEST,LB,CDISC-TEST-017,767,746,HDL,HDL Cholesterol,LIPIDS,1.38,mmol/L,,,1.38,1.38,mmol/L,,,,14646-4,SERUM,,,SCREENING,100,VISIT 1 (WEEK -2),2019-01-25,-15
CDISC-TEST,LB,CDISC-TEST-017,768,757,HDL,HDL Cholesterol,LIPIDS,1.82,mmol/L,,,1.82,1.82,mmol/L,,,,14646-4,SERUM,,,TREATMENT,200,VISIT 2 (WEEK 0),2019-02-09,1
CDISC-TEST,LB,CDISC-TEST-017,769,777,HDL,HDL Cholesterol,LIPIDS,1.55,mmol/L,,,1.55,1.55,mmol/L,,,,14646-4,SERUM,,,TREATMENT,2200,VISIT 22 (WEEK 20),2019-06-29,141
CDISC-TEST,LB,CDISC-TEST-017,770,767,HDL,HDL Cholesterol,LIPIDS,0.91,mmol/L,,,0.91,0.9099999999999999,mmol/L,,,,14646-4,SERUM,,,FOLLOW-UP,2900,END OF TRIAL,2019-09-09,213
CDISC-TEST,LB,CDISC-TEST-017,771,744,HGB,Hemoglobin,HAEMATOLOGY,6.89,mmol/L,,,6.89,6.89,mmol/L,,,,718-7,BLOOD,,,SCREENING,100,VISIT 1 (WEEK -2),2019-01-25,-15
CDISC-TEST,LB,CDISC-TEST-017,772,755,HGB,Hemoglobin,HAEMATOLOGY,7.57,mmol/L,,,7.57,7.57,mmol/L,,,,718-7,BLOOD,,,TREATMENT,200,VISIT 2 (WEEK 0),2019-02-09,1
CDISC-TEST,LB,CDISC-TEST-017,773,775,HGB,Hemoglobin,HAEMATOLOGY,8.28,mmol/L,,,8.28,8.279999999999998,mmol/L,,,,718-7,BLOOD,,,TREATMENT,2200,VISIT 22 (WEEK 20),2019-06-29,141
CDISC-TEST,LB,CDISC-TEST-017,774,765,HGB,Hemoglobin,HAEMATOLOGY,7.91,mmol/L,,,7.91,7.91,mmol/L,,,,718-7,BLOOD,,,FOLLOW-UP,2900,END OF TRIAL,2019-09-09,213
CDISC-TEST,LB,CDISC-TEST-017,775,743,LDL,LDL Cholesterol,LIPIDS,2.64,mmol/L,,,2.64,2.64,mmol/L,,,,22748-8,SERUM,,,SCREENING,100,VISIT 1 (WEEK -2),2019-01-25,-15
CDISC-TEST,LB,CDISC-TEST-017,776,754,LDL,LDL Cholesterol,LIPIDS,2.28,mmol/L,,,2.28,2.28,mmol/L,,,,22748-8,SERUM,,,TREATMENT,200,VISIT 2 (WEEK 0),2019-02-09,1
CDISC-TEST,LB,CDISC-TEST-017,777,774,LDL,LDL Cholesterol,LIPIDS,2.45,mmol/L,,,2.45,2.45,mmol/L,,,,22748-8,SERUM,,,TREATMENT,2200,VISIT 22 (WEEK 20),2019-06-29,141
CDISC-TEST,LB,CDISC-TEST-017,778,764,LDL,LDL Cholesterol,LIPIDS,2.4,mmol/L,,,2.4,2.4,mmol/L,,,,22748-8,SERUM,,,FOLLOW-UP,2900,END OF TRIAL,2019-09-09,213
CDISC-TEST,LB,CDISC-TEST-017,779,742,PLAT,Platelets,HAEMATOLOGY,227.57,10^9/L,,,227.57,227.57,10^9/L,,,,26515-7,BLOOD,,,SCREENING,100,VISIT 1 (WEEK -2),2019-01-25,-15
CDISC-TEST,LB,CDISC-TEST-017,780,753,PLAT,Platelets,HAEMATOLOGY,218.19,10^9/L,,,218.19,218.19,10^9/L,,,,26515-7,BLOOD,,,TREATMENT,200,VISIT 2 (WEEK 0),2019-02-09,1
CDISC-TEST,LB,CDISC-TEST-017,781,773,PLAT,Platelets,HAEMATOLOGY,185.27,10^9/L,,,185.27,185.27,10^9/L,,,,26515-7,BLOOD,,,TREATMENT,2200,VISIT 22 (WEEK 20),2019-06-29,141
CDISC-TEST,LB,CDISC-TEST-017,782,763,PLAT,Platelets,HAEMATOLOGY,234.59,10^9/L,,,234.59,234.59,10^9/L,,,,26515-7,BLOOD,,,FOLLOW-UP,2900,END OF TRIAL,2019-09-09,213
CDISC-TEST,LB,CDISC-TEST-018,783,791,ALB,Albumin,BIOCHEMISTRY,4.38,g/dL,,,4.38,4.38,g/dL,,,,1751-7,SERUM,,,SCREENING,100,VISIT 1 (WEEK -2),2019-02-15,-15
CDISC-TEST,LB,CDISC-TEST-018,784,803,ALB,Albumin,BIOCHEMISTRY,4.52,g/dL,,,4.52,4.52,g/dL,,,,1751-7,SERUM,,,TREATMENT,200,VISIT 2 (WEEK 0),2019-03-02,1
CDISC-TEST,LB,CDISC-TEST-018,785,817,ALB,Albumin,BIOCHEMISTRY,4.38,g/dL,,,4.38,4.38,g/dL,,,,1751-7,SERUM,,,TREATMENT,2200,VISIT 22 (WEEK 20),2019-07-20,141
CDISC-TEST,LB,CDISC-TEST-018,786,827,ALB,Albumin,BIOCHEMISTRY,3.92,g/dL,,,3.92,3.92,g/dL,,,,1751-7,SERUM,,,FOLLOW-UP,2900,END OF TRIAL,2019-09-30,213
CDISC-TEST,LB,CDISC-TEST-018,787,788,ALT,Alanine Aminotransferase,BIOCHEMISTRY,5.5,U/L,,,5.5,5.5,U/L,,,,1742-6,SERUM,,,SCREENING,100,VISIT 1 (WEEK -2),2019-02-15,-15
CDISC-TEST,LB,CDISC-TEST-018,788,800,ALT,Alanine Aminotransferase,BIOCHEMISTRY,42.44,U/L,,,42.44,42.44,U/L,,,,1742-6,SERUM,,,TREATMENT,200,VISIT 2 (WEEK 0),2019-03-02,1
CDISC-TEST,LB,CDISC-TEST-018,789,814,ALT,Alanine Aminotransferase,BIOCHEMISTRY,45.84,U/L,,,45.84,45.84,U/L,,,,1742-6,SERUM,,,TREATMENT,2200,VISIT 22 (WEEK 20),2019-07-20,141
CDISC-TEST,LB,CDISC-TEST-018,790,824,ALT,Alanine Aminotransferase,BIOCHEMISTRY,47.36,U/L,,,47.36,47.36,U/L,,,,1742-6,SERUM,,,FOLLOW-UP,2900,END OF TRIAL,2019-09-30,213
CDISC-TEST,LB,CDISC-TEST-018,791,784,CHOL,Cholesterol,LIPIDS,5.78,mmol/L,,,5.78,5.78,mmol/L,,,,2093-3,SERUM,,,SCREENING,100,VISIT 1 (WEEK -2),2019-02-15,-15
CDISC-TEST,LB,CDISC-TEST-018,792,796,CHOL,Cholesterol,LIPIDS,6.2,mmol/L,,,6.2,6.2,mmol/L,,,,2093-3,SERUM,,,TREATMENT,200,VISIT 2 (WEEK 0),2019-03-02,1
CDISC-TEST,LB,CDISC-TEST-018,793,810,CHOL,Cholesterol,LIPIDS,4.3,mmol/L,,,4.3,4.3,mmol/L,,,,2093-3,SERUM,,,TREATMENT,2200,VISIT 22 (WEEK 20),2019-07-20,141
CDISC-TEST,LB,CDISC-TEST-018,794,820,CHOL,Cholesterol,LIPIDS,5.68,mmol/L,,,5.68,5.68,mmol/L,,,,2093-3,SERUM,,,FOLLOW-UP,2900,END OF TRIAL,2019-09-30,213
CDISC-TEST,LB,CDISC-TEST-018,795,783,CREAT,Creatinine,BIOCHEMISTRY,50.88,umol/L,,,50.88,50.88,umol/L,,,,14682-9,SERUM,,,SCREENING,100,VISIT 1 (WEEK -2),2019-02-15,-15
CDISC-TEST,LB,CDISC-TEST-018,796,794,CREAT,Creatinine,BIOCHEMISTRY,45.17,umol/L,,,45.17,45.17,umol/L,,,,14682-9,SERUM,,,TREATMENT,200,VISIT 2 (WEEK 0),2019-03-02,1
CDISC-TEST,LB,CDISC-TEST-018,797,808,CREAT,Creatinine,BIOCHEMISTRY,106.36,umol/L,,,106.36,106.36,umol/L,,,,14682-9,SERUM,,,TREATMENT,2200,VISIT 22 (WEEK 20),2019-07-20,141
CDISC-TEST,LB,CDISC-TEST-018,798,818,CREAT,Creatinine,BIOCHEMISTRY,116.69,umol/L,,,116.69,116.69,umol/L,,,,14682-9,SERUM,,,FOLLOW-UP,2900,END OF TRIAL,2019-09-30,213
CDISC-TEST,LB,CDISC-TEST-018,799,795,HBA1CHGB,Hemoglobin A1C/Hemoglobin,GLUCOSE METABOLISM,47.77,mmol/mol,,,47.77,47.77,mmol/mol,,,,59261-8,BLOOD,,,TREATMENT,200,VISIT 2 (WEEK 0),2019-03-02,1
CDISC-TEST,LB,CDISC-TEST-018,800,804,HBA1CHGB,Hemoglobin A1C/Hemoglobin,GLUCOSE METABOLISM,92.97,mmol/mol,,,92.97,92.97,mmol/mol,,,,59261-8,BLOOD,,,TREATMENT,300,VISIT 3 (WEEK 1),2019-03-09,8
CDISC-TEST,LB,CDISC-TEST-018,801,792,HBA1CHGB,Hemoglobin A1C/Hemoglobin,GLUCOSE METABOLISM,94.74,mmol/mol,,,94.74,94.74,mmol/mol,,,,59261-8,BLOOD,,,TREATMENT,900,VISIT 9 (WEEK 7),2019-04-20,50
CDISC-TEST,LB,CDISC-TEST-018,802,793,HBA1CHGB,Hemoglobin A1C/Hemoglobin,GLUCOSE METABOLISM,72.53,mmol/mol,,,72.53,72.53,mmol/mol,,,,59261-8,BLOOD,,,TREATMENT,1400,VISIT 14 (WEEK 12),2019-05-25,85
CDISC-TEST,LB,CDISC-TEST-018,803,828,HBA1CHGB,Hemoglobin A1C/Hemoglobin,GLUCOSE METABOLISM,43.33,mmol/mol,,,43.33,43.33,mmol/mol,,,,59261-8,BLOOD,,,TREATMENT,1900,VISIT 19 (WEEK 17),2019-06-29,120
CDISC-TEST,LB,CDISC-TEST-018,804,806,HBA1CHGB,Hemoglobin A1C/Hemoglobin,GLUCOSE METABOLISM,64.3,mmol/mol,,,64.3,64.3,mmol/mol,,,,59261-8,BLOOD,,,TREATMENT,2000,VISIT 20 (WEEK 18),2019-07-06,127
CDISC-TEST,LB,CDISC-TEST-018,805,805,HBA1CHGB,Hemoglobin A1C/Hemoglobin,GLUCOSE METABOLISM,56.29,mmol/mol,,,56.29,56.29,mmol/mol,,,,59261-8,BLOOD,,,TREATMENT,2100,VISIT 21 (WEEK 19),2019-07-13,134
CDISC-TEST,LB,CDISC-TEST-018,806,809,HBA1CHGB,Hemoglobin A1C/Hemoglobin,GLUCOSE METABOLISM,68.98,mmol/mol,,,68.98,68.98,mmol/mol,,,,59261-8,BLOOD,,,TREATMENT,2200,VISIT 22 (WEEK 20),2019-07-20,141
CDISC-TEST,LB,CDISC-TEST-018,807,807,HBA1CHGB,Hemoglobin A1C/Hemoglobin,GLUCOSE METABOLISM,36.4,mmol/mol,,,36.4,36.4,mmol/mol,,,,59261-8,BLOOD,,,TREATMENT,2800,VISIT 28 (WEEK 26),2019-08-31,183
CDISC-TEST,LB,CDISC-TEST-018,808,819,HBA1CHGB,Hemoglobin A1C/Hemoglobin,GLUCOSE METABOLISM,74.39,mmol/mol,,,74.39,74.39,mmol/mol,,,,59261-8,BLOOD,,,FOLLOW-UP,2900,END OF TRIAL,2019-09-30,213
CDISC-TEST,LB,CDISC-TEST-018,809,790,HCT,Hematocrit,HAEMATOLOGY,32.3,%,,,32.3,32.3,%,,,,20570-8,BLOOD,,,SCREENING,100,VISIT 1 (WEEK -2),2019-02-15,-15
CDISC-TEST,LB,CDISC-TEST-018,810,802,HCT,Hematocrit,HAEMATOLOGY,43.52,%,,,43.52,43.52,%,,,,20570-8,BLOOD,,,TREATMENT,200,VISIT 2 (WEEK 0),2019-03-02,1
CDISC-TEST,LB,CDISC-TEST-018,811,816,HCT,Hematocrit,HAEMATOLOGY,39.61,%,,,39.61,39.61,%,,,,20570-8,BLOOD,,,TREATMENT,2200,VISIT 22 (WEEK 20),2019-07-20,141
CDISC-TEST,LB,CDISC-TEST-018,812,826,HCT,Hematocrit,HAEMATOLOGY,31.02,%,,,31.02,31.02,%,,,,20570-8,BLOOD,,,FOLLOW-UP,2900,END OF TRIAL,2019-09-30,213
CDISC-TEST,LB,CDISC-TEST-018,813,789,HDL,HDL Cholesterol,LIPIDS,1,mmol/L,,,1,1,mmol/L,,,,14646-4,SERUM,,,SCREENING,100,VISIT 1 (WEEK -2),2019-02-15,-15
CDISC-TEST,LB,CDISC-TEST-018,814,801,HDL,HDL Cholesterol,LIPIDS,1.12,mmol/L,,,1.12,1.12,mmol/L,,,,14646-4,SERUM,,,TREATMENT,200,VISIT 2 (WEEK 0),2019-03-02,1
CDISC-TEST,LB,CDISC-TEST-018,815,815,HDL,HDL Cholesterol,LIPIDS,1.1,mmol/L,,,1.1,1.1,mmol/L,,,,14646-4,SERUM,,,TREATMENT,2200,VISIT 22 (WEEK 20),2019-07-20,141
CDISC-TEST,LB,CDISC-TEST-018,816,825,HDL,HDL Cholesterol,LIPIDS,0.61,mmol/L,,,0.61,0.61,mmol/L,,,,14646-4,SERUM,,,FOLLOW-UP,2900,END OF TRIAL,2019-09-30,213
CDISC-TEST,LB,CDISC-TEST-018,817,787,HGB,Hemoglobin,HAEMATOLOGY,8.2,mmol/L,,,8.2,8.199999999999998,mmol/L,,,,718-7,BLOOD,,,SCREENING,100,VISIT 1 (WEEK -2),2019-02-15,-15
CDISC-TEST,LB,CDISC-TEST-018,818,799,HGB,Hemoglobin,HAEMATOLOGY,8.46,mmol/L,,,8.46,8.46,mmol/L,,,,718-7,BLOOD,,,TREATMENT,200,VISIT 2 (WEEK 0),2019-03-02,1
CDISC-TEST,LB,CDISC-TEST-018,819,813,HGB,Hemoglobin,HAEMATOLOGY,7.3,mmol/L,,,7.3,7.3,mmol/L,,,,718-7,BLOOD,,,TREATMENT,2200,VISIT 22 (WEEK 20),2019-07-20,141
CDISC-TEST,LB,CDISC-TEST-018,820,823,HGB,Hemoglobin,HAEMATOLOGY,9.11,mmol/L,,,9.11,9.11,mmol/L,,,,718-7,BLOOD,,,FOLLOW-UP,2900,END OF TRIAL,2019-09-30,213
CDISC-TEST,LB,CDISC-TEST-018,821,786,LDL,LDL Cholesterol,LIPIDS,3.4,mmol/L,,,3.4,3.4,mmol/L,,,,22748-8,SERUM,,,SCREENING,100,VISIT 1 (WEEK -2),2019-02-15,-15
CDISC-TEST,LB,CDISC-TEST-018,822,798,LDL,LDL Cholesterol,LIPIDS,1.52,mmol/L,,,1.52,1.52,mmol/L,,,,22748-8,SERUM,,,TREATMENT,200,VISIT 2 (WEEK 0),2019-03-02,1
CDISC-TEST,LB,CDISC-TEST-018,823,812,LDL,LDL Cholesterol,LIPIDS,3.65,mmol/L,,,3.65,3.65,mmol/L,,,,22748-8,SERUM,,,TREATMENT,2200,VISIT 22 (WEEK 20),2019-07-20,141
CDISC-TEST,LB,CDISC-TEST-018,824,822,LDL,LDL Cholesterol,LIPIDS,1.59,mmol/L,,,1.59,1.59,mmol/L,,,,22748-8,SERUM,,,FOLLOW-UP,2900,END OF TRIAL,2019-09-30,213
CDISC-TEST,LB,CDISC-TEST-018,825,785,PLAT,Platelets,HAEMATOLOGY,335.66,10^9/L,,,335.66,335.66,10^9/L,,,,26515-7,BLOOD,,,SCREENING,100,VISIT 1 (WEEK -2),2019-02-15,-15
CDISC-TEST,LB,CDISC-TEST-018,826,797,PLAT,Platelets,HAEMATOLOGY,296.88,10^9/L,,,296.88,296.88,10^9/L,,,,26515-7,BLOOD,,,TREATMENT,200,VISIT 2 (WEEK 0),2019-03-02,1
CDISC-TEST,LB,CDISC-TEST-018,827,811,PLAT,Platelets,HAEMATOLOGY,251.34,10^9/L,,,251.34,251.34,10^9/L,,,,26515-7,BLOOD,,,TREATMENT,2200,VISIT 22 (WEEK 20),2019-07-20,141
CDISC-TEST,LB,CDISC-TEST-018,828,821,PLAT,Platelets,HAEMATOLOGY,329.54,10^9/L,,,329.54,329.54,10^9/L,,,,26515-7,BLOOD,,,FOLLOW-UP,2900,END OF TRIAL,2019-09-30,213
CDISC-TEST,LB,CDISC-TEST-019,829,838,ALB,Albumin,BIOCHEMISTRY,4.43,g/dL,,,4.43,4.43,g/dL,,,,1751-7,SERUM,,,SCREENING,100,VISIT 1 (WEEK -2),2019-02-20,-15
CDISC-TEST,LB,CDISC-TEST-019,830,863,ALB,Albumin,BIOCHEMISTRY,4.15,g/dL,,,4.15,4.15,g/dL,,,,1751-7,SERUM,,,TREATMENT,200,VISIT 2 (WEEK 0),2019-03-07,1
CDISC-TEST,LB,CDISC-TEST-019,831,850,ALB,Albumin,BIOCHEMISTRY,4.3,g/dL,,,4.3,4.3,g/dL,,,,1751-7,SERUM,,,TREATMENT,2200,VISIT 22 (WEEK 20),2019-07-25,141
CDISC-TEST,LB,CDISC-TEST-019,832,873,ALB,Albumin,BIOCHEMISTRY,4.47,g/dL,,,4.47,4.47,g/dL,,,,1751-7,SERUM,,,FOLLOW-UP,2900,END OF TRIAL,2019-10-05,213
CDISC-TEST,LB,CDISC-TEST-019,833,835,ALT,Alanine Aminotransferase,BIOCHEMISTRY,50.62,U/L,,,50.62,50.62,U/L,,,,1742-6,SERUM,,,SCREENING,100,VISIT 1 (WEEK -2),2019-02-20,-15
CDISC-TEST,LB,CDISC-TEST-019,834,860,ALT,Alanine Aminotransferase,BIOCHEMISTRY,42.34,U/L,,,42.34,42.34,U/L,,,,1742-6,SERUM,,,TREATMENT,200,VISIT 2 (WEEK 0),2019-03-07,1
CDISC-TEST,LB,CDISC-TEST-019,835,847,ALT,Alanine Aminotransferase,BIOCHEMISTRY,22.04,U/L,,,22.04,22.04,U/L,,,,1742-6,SERUM,,,TREATMENT,2200,VISIT 22 (WEEK 20),2019-07-25,141
CDISC-TEST,LB,CDISC-TEST-019,836,870,ALT,Alanine Aminotransferase,BIOCHEMISTRY,13.62,U/L,,,13.62,13.62,U/L,,,,1742-6,SERUM,,,FOLLOW-UP,2900,END OF TRIAL,2019-10-05,213
CDISC-TEST,LB,CDISC-TEST-019,837,831,CHOL,Cholesterol,LIPIDS,4.69,mmol/L,,,4.69,4.69,mmol/L,,,,2093-3,SERUM,,,SCREENING,100,VISIT 1 (WEEK -2),2019-02-20,-15
CDISC-TEST,LB,CDISC-TEST-019,838,856,CHOL,Cholesterol,LIPIDS,3.93,mmol/L,,,3.93,3.93,mmol/L,,,,2093-3,SERUM,,,TREATMENT,200,VISIT 2 (WEEK 0),2019-03-07,1
CDISC-TEST,LB,CDISC-TEST-019,839,843,CHOL,Cholesterol,LIPIDS,4.71,mmol/L,,,4.71,4.71,mmol/L,,,,2093-3,SERUM,,,TREATMENT,2200,VISIT 22 (WEEK 20),2019-07-25,141
CDISC-TEST,LB,CDISC-TEST-019,840,866,CHOL,Cholesterol,LIPIDS,4.48,mmol/L,,,4.48,4.48,mmol/L,,,,2093-3,SERUM,,,FOLLOW-UP,2900,END OF TRIAL,2019-10-05,213
CDISC-TEST,LB,CDISC-TEST-019,841,830,CREAT,Creatinine,BIOCHEMISTRY,114.16,umol/L,,,114.16,114.16,umol/L,,,,14682-9,SERUM,,,SCREENING,100,VISIT 1 (WEEK -2),2019-02-20,-15
CDISC-TEST,LB,CDISC-TEST-019,842,854,CREAT,Creatinine,BIOCHEMISTRY,73.03,umol/L,,,73.03,73.03,umol/L,,,,14682-9,SERUM,,,TREATMENT,200,VISIT 2 (WEEK 0),2019-03-07,1
CDISC-TEST,LB,CDISC-TEST-019,843,841,CREAT,Creatinine,BIOCHEMISTRY,7.22,umol/L,,,7.22,7.22,umol/L,,,,14682-9,SERUM,,,TREATMENT,2200,VISIT 22 (WEEK 20),2019-07-25,141
CDISC-TEST,LB,CDISC-TEST-019,844,864,CREAT,Creatinine,BIOCHEMISTRY,87.67,umol/L,,,87.67,87.67,umol/L,,,,14682-9,SERUM,,,FOLLOW-UP,2900,END OF TRIAL,2019-10-05,213
CDISC-TEST,LB,CDISC-TEST-019,845,855,HBA1CHGB,Hemoglobin A1C/Hemoglobin,GLUCOSE METABOLISM,82.28,mmol/mol,,,82.28,82.28,mmol/mol,,,,59261-8,BLOOD,,,TREATMENT,200,VISIT 2 (WEEK 0),2019-03-07,1
CDISC-TEST,LB,CDISC-TEST-019,846,829,HBA1CHGB,Hemoglobin A1C/Hemoglobin,GLUCOSE METABOLISM,61.93,mmol/mol,,,61.93,61.93,mmol/mol,,,,59261-8,BLOOD,,,TREATMENT,300,VISIT 3 (WEEK 1),2019-03-14,8
CDISC-TEST,LB,CDISC-TEST-019,847,839,HBA1CHGB,Hemoglobin A1C/Hemoglobin,GLUCOSE METABOLISM,72.72,mmol/mol,,,72.72,72.72,mmol/mol,,,,59261-8,BLOOD,,,TREATMENT,900,VISIT 9 (WEEK 7),2019-04-25,50
CDISC-TEST,LB,CDISC-TEST-019,848,852,HBA1CHGB,Hemoglobin A1C/Hemoglobin,GLUCOSE METABOLISM,47.59,mmol/mol,,,47.59,47.59,mmol/mol,,,,59261-8,BLOOD,,,TREATMENT,1400,VISIT 14 (WEEK 12),2019-05-30,85
CDISC-TEST,LB,CDISC-TEST-019,849,874,HBA1CHGB,Hemoglobin A1C/Hemoglobin,GLUCOSE METABOLISM,54.89,mmol/mol,,,54.89,54.89,mmol/mol,,,,59261-8,BLOOD,,,TREATMENT,1900,VISIT 19 (WEEK 17),2019-07-04,120
CDISC-TEST,LB,CDISC-TEST-019,850,851,HBA1CHGB,Hemoglobin A1C/Hemoglobin,GLUCOSE METABOLISM,54.34,mmol/mol,,,54.34,54.34,mmol/mol,,,,59261-8,BLOOD,,,TREATMENT,2000,VISIT 20 (WEEK 18),2019-07-11,127
CDISC-TEST,LB,CDISC-TEST-019,851,853,HBA1CHGB,Hemoglobin A1C/Hemoglobin,GLUCOSE METABOLISM,42.9,mmol/mol,,,42.9,42.9,mmol/mol,,,,59261-8,BLOOD,,,TREATMENT,2100,VISIT 21 (WEEK 19),2019-07-18,134
CDISC-TEST,LB,CDISC-TEST-019,852,842,HBA1CHGB,Hemoglobin A1C/Hemoglobin,GLUCOSE METABOLISM,22.33,mmol/mol,,,22.33,22.33,mmol/mol,,,,59261-8,BLOOD,,,TREATMENT,2200,VISIT 22 (WEEK 20),2019-07-25,141
CDISC-TEST,LB,CDISC-TEST-019,853,840,HBA1CHGB,Hemoglobin A1C/Hemoglobin,GLUCOSE METABOLISM,72,mmol/mol,,,72,72,mmol/mol,,,,59261-8,BLOOD,,,TREATMENT,2800,VISIT 28 (WEEK 26),2019-09-05,183
CDISC-TEST,LB,CDISC-TEST-019,854,865,HBA1CHGB,Hemoglobin A1C/Hemoglobin,GLUCOSE METABOLISM,74.9,mmol/mol,,,74.9,74.9,mmol/mol,,,,59261-8,BLOOD,,,FOLLOW-UP,2900,END OF TRIAL,2019-10-05,213
CDISC-TEST,LB,CDISC-TEST-019,855,837,HCT,Hematocrit,HAEMATOLOGY,44.23,%,,,44.23,44.23,%,,,,20570-8,BLOOD,,,SCREENING,100,VISIT 1 (WEEK -2),2019-02-20,-15
CDISC-TEST,LB,CDISC-TEST-019,856,862,HCT,Hematocrit,HAEMATOLOGY,34.54,%,,,34.54,34.54,%,,,,20570-8,BLOOD,,,TREATMENT,200,VISIT 2 (WEEK 0),2019-03-07,1
CDISC-TEST,LB,CDISC-TEST-019,857,849,HCT,Hematocrit,HAEMATOLOGY,41.93,%,,,41.93,41.93,%,,,,20570-8,BLOOD,,,TREATMENT,2200,VISIT 22 (WEEK 20),2019-07-25,141
CDISC-TEST,LB,CDISC-TEST-019,858,872,HCT,Hematocrit,HAEMATOLOGY,40.23,%,,,40.23,40.23,%,,,,20570-8,BLOOD,,,FOLLOW-UP,2900,END OF TRIAL,2019-10-05,213
CDISC-TEST,LB,CDISC-TEST-019,859,836,HDL,HDL Cholesterol,LIPIDS,0.98,mmol/L,,,0.98,0.9800000000000001,mmol/L,,,,14646-4,SERUM,,,SCREENING,100,VISIT 1 (WEEK -2),2019-02-20,-15
CDISC-TEST,LB,CDISC-TEST-019,860,861,HDL,HDL Cholesterol,LIPIDS,1.11,mmol/L,,,1.11,1.11,mmol/L,,,,14646-4,SERUM,,,TREATMENT,200,VISIT 2 (WEEK 0),2019-03-07,1
CDISC-TEST,LB,CDISC-TEST-019,861,848,HDL,HDL Cholesterol,LIPIDS,1.61,mmol/L,,,1.61,1.61,mmol/L,,,,14646-4,SERUM,,,TREATMENT,2200,VISIT 22 (WEEK 20),2019-07-25,141
CDISC-TEST,LB,CDISC-TEST-019,862,871,HDL,HDL Cholesterol,LIPIDS,1.15,mmol/L,,,1.15,1.15,mmol/L,,,,14646-4,SERUM,,,FOLLOW-UP,2900,END OF TRIAL,2019-10-05,213
CDISC-TEST,LB,CDISC-TEST-019,863,834,HGB,Hemoglobin,HAEMATOLOGY,9.33,mmol/L,,,9.33,9.33,mmol/L,,,,718-7,BLOOD,,,SCREENING,100,VISIT 1 (WEEK -2),2019-02-20,-15
CDISC-TEST,LB,CDISC-TEST-019,864,859,HGB,Hemoglobin,HAEMATOLOGY,6.25,mmol/L,,,6.25,6.25,mmol/L,,,,718-7,BLOOD,,,TREATMENT,200,VISIT 2 (WEEK 0),2019-03-07,1
CDISC-TEST,LB,CDISC-TEST-019,865,846,HGB,Hemoglobin,HAEMATOLOGY,7.92,mmol/L,,,7.92,7.92,mmol/L,,,,718-7,BLOOD,,,TREATMENT,2200,VISIT 22 (WEEK 20),2019-07-25,141
CDISC-TEST,LB,CDISC-TEST-019,866,869,HGB,Hemoglobin,HAEMATOLOGY,10.81,mmol/L,,,10.81,10.81,mmol/L,,,,718-7,BLOOD,,,FOLLOW-UP,2900,END OF TRIAL,2019-10-05,213
CDISC-TEST,LB,CDISC-TEST-019,867,833,LDL,LDL Cholesterol,LIPIDS,2.33,mmol/L,,,2.33,2.33,mmol/L,,,,22748-8,SERUM,,,SCREENING,100,VISIT 1 (WEEK -2),2019-02-20,-15
CDISC-TEST,LB,CDISC-TEST-019,868,858,LDL,LDL Cholesterol,LIPIDS,1.79,mmol/L,,,1.79,1.79,mmol/L,,,,22748-8,SERUM,,,TREATMENT,200,VISIT 2 (WEEK 0),2019-03-07,1
CDISC-TEST,LB,CDISC-TEST-019,869,845,LDL,LDL Cholesterol,LIPIDS,3.15,mmol/L,,,3.15,3.15,mmol/L,,,,22748-8,SERUM,,,TREATMENT,2200,VISIT 22 (WEEK 20),2019-07-25,141
CDISC-TEST,LB,CDISC-TEST-019,870,868,LDL,LDL Cholesterol,LIPIDS,1.19,mmol/L,,,1.19,1.19,mmol/L,,,,22748-8,SERUM,,,FOLLOW-UP,2900,END OF TRIAL,2019-10-05,213
CDISC-TEST,LB,CDISC-TEST-019,871,832,PLAT,Platelets,HAEMATOLOGY,284.97,10^9/L,,,284.97,284.97,10^9/L,,,,26515-7,BLOOD,,,SCREENING,100,VISIT 1 (WEEK -2),2019-02-20,-15
CDISC-TEST,LB,CDISC-TEST-019,872,857,PLAT,Platelets,HAEMATOLOGY,234.26,10^9/L,,,234.26,234.26,10^9/L,,,,26515-7,BLOOD,,,TREATMENT,200,VISIT 2 (WEEK 0),2019-03-07,1
CDISC-TEST,LB,CDISC-TEST-019,873,844,PLAT,Platelets,HAEMATOLOGY,209.42,10^9/L,,,209.42,209.42,10^9/L,,,,26515-7,BLOOD,,,TREATMENT,2200,VISIT 22 (WEEK 20),2019-07-25,141
CDISC-TEST,LB,CDISC-TEST-019,874,867,PLAT,Platelets,HAEMATOLOGY,137.62,10^9/L,,,137.62,137.62,10^9/L,,,,26515-7,BLOOD,,,FOLLOW-UP,2900,END OF TRIAL,2019-10-05,213
CDISC-TEST,LB,CDISC-TEST-020,875,896,ALB,Albumin,BIOCHEMISTRY,4.13,g/dL,,,4.13,4.13,g/dL,,,,1751-7,SERUM,,,SCREENING,100,VISIT 1 (WEEK -2),2019-01-03,-15
CDISC-TEST,LB,CDISC-TEST-020,876,885,ALB,Albumin,BIOCHEMISTRY,4,g/dL,,,4,4,g/dL,,,,1751-7,SERUM,,,TREATMENT,200,VISIT 2 (WEEK 0),2019-01-18,1
CDISC-TEST,LB,CDISC-TEST-020,877,909,ALB,Albumin,BIOCHEMISTRY,3.72,g/dL,,,3.72,3.72,g/dL,,,,1751-7,SERUM,,,TREATMENT,2200,VISIT 22 (WEEK 20),2019-06-07,141
CDISC-TEST,LB,CDISC-TEST-020,878,920,ALB,Albumin,BIOCHEMISTRY,4.18,g/dL,,,4.18,4.18,g/dL,,,,1751-7,SERUM,,,FOLLOW-UP,2900,END OF TRIAL,2019-08-18,213
CDISC-TEST,LB,CDISC-TEST-020,879,893,ALT,Alanine Aminotransferase,BIOCHEMISTRY,40.67,U/L,,,40.67,40.67,U/L,,,,1742-6,SERUM,,,SCREENING,100,VISIT 1 (WEEK -2),2019-01-03,-15
CDISC-TEST,LB,CDISC-TEST-020,880,882,ALT,Alanine Aminotransferase,BIOCHEMISTRY,34.87,U/L,,,34.87,34.87,U/L,,,,1742-6,SERUM,,,TREATMENT,200,VISIT 2 (WEEK 0),2019-01-18,1
CDISC-TEST,LB,CDISC-TEST-020,881,906,ALT,Alanine Aminotransferase,BIOCHEMISTRY,35.35,U/L,,,35.35,35.35,U/L,,,,1742-6,SERUM,,,TREATMENT,2200,VISIT 22 (WEEK 20),2019-06-07,141
CDISC-TEST,LB,CDISC-TEST-020,882,917,ALT,Alanine Aminotransferase,BIOCHEMISTRY,17.58,U/L,,,17.58,17.58,U/L,,,,1742-6,SERUM,,,FOLLOW-UP,2900,END OF TRIAL,2019-08-18,213
CDISC-TEST,LB,CDISC-TEST-020,883,889,CHOL,Cholesterol,LIPIDS,3.45,mmol/L,,,3.45,3.45,mmol/L,,,,2093-3,SERUM,,,SCREENING,100,VISIT 1 (WEEK -2),2019-01-03,-15
CDISC-TEST,LB,CDISC-TEST-020,884,878,CHOL,Cholesterol,LIPIDS,5.63,mmol/L,,,5.63,5.63,mmol/L,,,,2093-3,SERUM,,,TREATMENT,200,VISIT 2 (WEEK 0),2019-01-18,1
CDISC-TEST,LB,CDISC-TEST-020,885,902,CHOL,Cholesterol,LIPIDS,3.72,mmol/L,,,3.72,3.72,mmol/L,,,,2093-3,SERUM,,,TREATMENT,2200,VISIT 22 (WEEK 20),2019-06-07,141
CDISC-TEST,LB,CDISC-TEST-020,886,913,CHOL,Cholesterol,LIPIDS,4.61,mmol/L,,,4.61,4.61,mmol/L,,,,2093-3,SERUM,,,FOLLOW-UP,2900,END OF TRIAL,2019-08-18,213
CDISC-TEST,LB,CDISC-TEST-020,887,888,CREAT,Creatinine,BIOCHEMISTRY,71.53,umol/L,,,71.53,71.53,umol/L,,,,14682-9,SERUM,,,SCREENING,100,VISIT 1 (WEEK -2),2019-01-03,-15
CDISC-TEST,LB,CDISC-TEST-020,888,876,CREAT,Creatinine,BIOCHEMISTRY,114.78,umol/L,,,114.78,114.78,umol/L,,,,14682-9,SERUM,,,TREATMENT,200,VISIT 2 (WEEK 0),2019-01-18,1
CDISC-TEST,LB,CDISC-TEST-020,889,900,CREAT,Creatinine,BIOCHEMISTRY,92.9,umol/L,,,92.9,92.9,umol/L,,,,14682-9,SERUM,,,TREATMENT,2200,VISIT 22 (WEEK 20),2019-06-07,141
CDISC-TEST,LB,CDISC-TEST-020,890,911,CREAT,Creatinine,BIOCHEMISTRY,67.38,umol/L,,,67.38,67.38,umol/L,,,,14682-9,SERUM,,,FOLLOW-UP,2900,END OF TRIAL,2019-08-18,213
CDISC-TEST,LB,CDISC-TEST-020,891,877,HBA1CHGB,Hemoglobin A1C/Hemoglobin,GLUCOSE METABOLISM,52.37,mmol/mol,,,52.37,52.37,mmol/mol,,,,59261-8,BLOOD,,,TREATMENT,200,VISIT 2 (WEEK 0),2019-01-18,1
CDISC-TEST,LB,CDISC-TEST-020,892,897,HBA1CHGB,Hemoglobin A1C/Hemoglobin,GLUCOSE METABOLISM,59.58,mmol/mol,,,59.58,59.58,mmol/mol,,,,59261-8,BLOOD,,,TREATMENT,300,VISIT 3 (WEEK 1),2019-01-25,8
CDISC-TEST,LB,CDISC-TEST-020,893,886,HBA1CHGB,Hemoglobin A1C/Hemoglobin,GLUCOSE METABOLISM,45.92,mmol/mol,,,45.92,45.92,mmol/mol,,,,59261-8,BLOOD,,,TREATMENT,900,VISIT 9 (WEEK 7),2019-03-08,50
CDISC-TEST,LB,CDISC-TEST-020,894,875,HBA1CHGB,Hemoglobin A1C/Hemoglobin,GLUCOSE METABOLISM,83.34,mmol/mol,,,83.34,83.34,mmol/mol,,,,59261-8,BLOOD,,,TREATMENT,1400,VISIT 14 (WEEK 12),2019-04-12,85
CDISC-TEST,LB,CDISC-TEST-020,895,899,HBA1CHGB,Hemoglobin A1C/Hemoglobin,GLUCOSE METABOLISM,59.72,mmol/mol,,,59.72,59.72,mmol/mol,,,,59261-8,BLOOD,,,TREATMENT,1900,VISIT 19 (WEEK 17),2019-05-17,120
CDISC-TEST,LB,CDISC-TEST-020,896,910,HBA1CHGB,Hemoglobin A1C/Hemoglobin,GLUCOSE METABOLISM,60.37,mmol/mol,,,60.37,60.37,mmol/mol,,,,59261-8,BLOOD,,,TREATMENT,2000,VISIT 20 (WEEK 18),2019-05-24,127
CDISC-TEST,LB,CDISC-TEST-020,897,887,HBA1CHGB,Hemoglobin A1C/Hemoglobin,GLUCOSE METABOLISM,75.12,mmol/mol,,,75.12,75.12,mmol/mol,,,,59261-8,BLOOD,,,TREATMENT,2100,VISIT 21 (WEEK 19),2019-05-31,134
CDISC-TEST,LB,CDISC-TEST-020,898,901,HBA1CHGB,Hemoglobin A1C/Hemoglobin,GLUCOSE METABOLISM,70.87,mmol/mol,,,70.87,70.87,mmol/mol,,,,59261-8,BLOOD,,,TREATMENT,2200,VISIT 22 (WEEK 20),2019-06-07,141
CDISC-TEST,LB,CDISC-TEST-020,899,898,HBA1CHGB,Hemoglobin A1C/Hemoglobin,GLUCOSE METABOLISM,59.32,mmol/mol,,,59.32,59.32,mmol/mol,,,,59261-8,BLOOD,,,TREATMENT,2800,VISIT 28 (WEEK 26),2019-07-19,183
CDISC-TEST,LB,CDISC-TEST-020,900,912,HBA1CHGB,Hemoglobin A1C/Hemoglobin,GLUCOSE METABOLISM,47.43,mmol/mol,,,47.43,47.43,mmol/mol,,,,59261-8,BLOOD,,,FOLLOW-UP,2900,END OF TRIAL,2019-08-18,213
CDISC-TEST,LB,CDISC-TEST-020,901,895,HCT,Hematocrit,HAEMATOLOGY,46.65,%,,,46.65,46.65,%,,,,20570-8,BLOOD,,,SCREENING,100,VISIT 1 (WEEK -2),2019-01-03,-15
CDISC-TEST,LB,CDISC-TEST-020,902,884,HCT,Hematocrit,HAEMATOLOGY,45.69,%,,,45.69,45.69,%,,,,20570-8,BLOOD,,,TREATMENT,200,VISIT 2 (WEEK 0),2019-01-18,1
CDISC-TEST,LB,CDISC-TEST-020,903,908,HCT,Hematocrit,HAEMATOLOGY,32.48,%,,,32.48,32.48,%,,,,20570-8,BLOOD,,,TREATMENT,2200,VISIT 22 (WEEK 20),2019-06-07,141
CDISC-TEST,LB,CDISC-TEST-020,904,919,HCT,Hematocrit,HAEMATOLOGY,46.56,%,,,46.56,46.56,%,,,,20570-8,BLOOD,,,FOLLOW-UP,2900,END OF TRIAL,2019-08-18,213
CDISC-TEST,LB,CDISC-TEST-020,905,894,HDL,HDL Cholesterol,LIPIDS,0.74,mmol/L,,,0.74,0.74,mmol/L,,,,14646-4,SERUM,,,SCREENING,100,VISIT 1 (WEEK -2),2019-01-03,-15
CDISC-TEST,LB,CDISC-TEST-020,906,883,HDL,HDL Cholesterol,LIPIDS,0.85,mmol/L,,,0.85,0.85,mmol/L,,,,14646-4,SERUM,,,TREATMENT,200,VISIT 2 (WEEK 0),2019-01-18,1
CDISC-TEST,LB,CDISC-TEST-020,907,907,HDL,HDL Cholesterol,LIPIDS,1.72,mmol/L,,,1.72,1.72,mmol/L,,,,14646-4,SERUM,,,TREATMENT,2200,VISIT 22 (WEEK 20),2019-06-07,141
CDISC-TEST,LB,CDISC-TEST-020,908,918,HDL,HDL Cholesterol,LIPIDS,0.73,mmol/L,,,0.73,0.73,mmol/L,,,,14646-4,SERUM,,,FOLLOW-UP,2900,END OF TRIAL,2019-08-18,213
CDISC-TEST,LB,CDISC-TEST-020,909,892,HGB,Hemoglobin,HAEMATOLOGY,9.3,mmol/L,,,9.3,9.3,mmol/L,,,,718-7,BLOOD,,,SCREENING,100,VISIT 1 (WEEK -2),2019-01-03,-15
CDISC-TEST,LB,CDISC-TEST-020,910,881,HGB,Hemoglobin,HAEMATOLOGY,7.02,mmol/L,,,7.02,7.02,mmol/L,,,,718-7,BLOOD,,,TREATMENT,200,VISIT 2 (WEEK 0),2019-01-18,1
CDISC-TEST,LB,CDISC-TEST-020,911,905,HGB,Hemoglobin,HAEMATOLOGY,8.41,mmol/L,,,8.41,8.41,mmol/L,,,,718-7,BLOOD,,,TREATMENT,2200,VISIT 22 (WEEK 20),2019-06-07,141
CDISC-TEST,LB,CDISC-TEST-020,912,916,HGB,Hemoglobin,HAEMATOLOGY,7.73,mmol/L,,,7.73,7.73,mmol/L,,,,718-7,BLOOD,,,FOLLOW-UP,2900,END OF TRIAL,2019-08-18,213
CDISC-TEST,LB,CDISC-TEST-020,913,891,LDL,LDL Cholesterol,LIPIDS,2.77,mmol/L,,,2.77,2.77,mmol/L,,,,22748-8,SERUM,,,SCREENING,100,VISIT 1 (WEEK -2),2019-01-03,-15
CDISC-TEST,LB,CDISC-TEST-020,914,880,LDL,LDL Cholesterol,LIPIDS,3.81,mmol/L,,,3.81,3.81,mmol/L,,,,22748-8,SERUM,,,TREATMENT,200,VISIT 2 (WEEK 0),2019-01-18,1
CDISC-TEST,LB,CDISC-TEST-020,915,904,LDL,LDL Cholesterol,LIPIDS,2.49,mmol/L,,,2.49,2.49,mmol/L,,,,22748-8,SERUM,,,TREATMENT,2200,VISIT 22 (WEEK 20),2019-06-07,141
CDISC-TEST,LB,CDISC-TEST-020,916,915,LDL,LDL Cholesterol,LIPIDS,2.89,mmol/L,,,2.89,2.89,mmol/L,,,,22748-8,SERUM,,,FOLLOW-UP,2900,END OF TRIAL,2019-08-18,213
CDISC-TEST,LB,CDISC-TEST-020,917,890,PLAT,Platelets,HAEMATOLOGY,203.51,10^9/L,,,203.51,203.51,10^9/L,,,,26515-7,BLOOD,,,SCREENING,100,VISIT 1 (WEEK -2),2019-01-03,-15
CDISC-TEST,LB,CDISC-TEST-020,918,879,PLAT,Platelets,HAEMATOLOGY,331.6,10^9/L,,,331.6,331.6,10^9/L,,,,26515-7,BLOOD,,,TREATMENT,200,VISIT 2 (WEEK 0),2019-01-18,1
CDISC-TEST,LB,CDISC-TEST-020,919,903,PLAT,Platelets,HAEMATOLOGY,200.54,10^9/L,,,200.54,200.54,10^9/L,,,,26515-7,BLOOD,,,TREATMENT,2200,VISIT 22 (WEEK 20),2019-06-07,141
CDISC-TEST,LB,CDISC-TEST-020,920,914,PLAT,Platelets,HAEMATOLOGY,278.85,10^9/L,,,278.85,278.85,10^9/L,,,,26515-7,BLOOD,,,FOLLOW-UP,2900,END OF TRIAL,2019-08-18,213
CDISC-TEST,LB,CDISC-TEST-021,921,942,ALB,Albumin,BIOCHEMISTRY,3.81,g/dL,,,3.81,3.81,g/dL,,,,1751-7,SERUM,,,SCREENING,100,VISIT 1 (WEEK -2),2019-01-02,-15
CDISC-TEST,LB,CDISC-TEST-021,922,931,ALB,Albumin,BIOCHEMISTRY,4.5,g/dL,,,4.5,4.5,g/dL,,,,1751-7,SERUM,,,TREATMENT,200,VISIT 2 (WEEK 0),2019-01-17,1
CDISC-TEST,LB,CDISC-TEST-021,923,966,ALB,Albumin,BIOCHEMISTRY,4.1,g/dL,,,4.1,4.1,g/dL,,,,1751-7,SERUM,,,TREATMENT,2200,VISIT 22 (WEEK 20),2019-06-06,141
CDISC-TEST,LB,CDISC-TEST-021,924,954,ALB,Albumin,BIOCHEMISTRY,3.57,g/dL,,,3.57,3.57,g/dL,,,,1751-7,SERUM,,,FOLLOW-UP,2900,END OF TRIAL,2019-08-17,213
CDISC-TEST,LB,CDISC-TEST-021,925,939,ALT,Alanine Aminotransferase,BIOCHEMISTRY,22.67,U/L,,,22.67,22.67,U/L,,,,1742-6,SERUM,,,SCREENING,100,VISIT 1 (WEEK -2),2019-01-02,-15
CDISC-TEST,LB,CDISC-TEST-021,926,928,ALT,Alanine Aminotransferase,BIOCHEMISTRY,58.82,U/L,,,58.82,58.82,U/L,,,,1742-6,SERUM,,,TREATMENT,200,VISIT 2 (WEEK 0),2019-01-17,1
CDISC-TEST,LB,CDISC-TEST-021,927,963,ALT,Alanine Aminotransferase,BIOCHEMISTRY,39.58,U/L,,,39.58,39.58,U/L,,,,1742-6,SERUM,,,TREATMENT,2200,VISIT 22 (WEEK 20),2019-06-06,141
CDISC-TEST,LB,CDISC-TEST-021,928,951,ALT,Alanine Aminotransferase,BIOCHEMISTRY,61.46,U/L,,,61.46,61.46,U/L,,,,1742-6,SERUM,,,FOLLOW-UP,2900,END OF TRIAL,2019-08-17,213
CDISC-TEST,LB,CDISC-TEST-021,929,935,CHOL,Cholesterol,LIPIDS,5.69,mmol/L,,,5.69,5.69,mmol/L,,,,2093-3,SERUM,,,SCREENING,100,VISIT 1 (WEEK -2),2019-01-02,-15
CDISC-TEST,LB,CDISC-TEST-021,930,924,CHOL,Cholesterol,LIPIDS,3.61,mmol/L,,,3.61,3.61,mmol/L,,,,2093-3,SERUM,,,TREATMENT,200,VISIT 2 (WEEK 0),2019-01-17,1
CDISC-TEST,LB,CDISC-TEST-021,931,959,CHOL,Cholesterol,LIPIDS,5.53,mmol/L,,,5.53,5.53,mmol/L,,,,2093-3,SERUM,,,TREATMENT,2200,VISIT 22 (WEEK 20),2019-06-06,141
CDISC-TEST,LB,CDISC-TEST-021,932,947,CHOL,Cholesterol,LIPIDS,2.67,mmol/L,,,2.67,2.67,mmol/L,,,,2093-3,SERUM,,,FOLLOW-UP,2900,END OF TRIAL,2019-08-17,213
CDISC-TEST,LB,CDISC-TEST-021,933,934,CREAT,Creatinine,BIOCHEMISTRY,69.72,umol/L,,,69.72,69.72,umol/L,,,,14682-9,SERUM,,,SCREENING,100,VISIT 1 (WEEK -2),2019-01-02,-15
CDISC-TEST,LB,CDISC-TEST-021,934,922,CREAT,Creatinine,BIOCHEMISTRY,78.4,umol/L,,,78.4,78.4,umol/L,,,,14682-9,SERUM,,,TREATMENT,200,VISIT 2 (WEEK 0),2019-01-17,1
CDISC-TEST,LB,CDISC-TEST-021,935,957,CREAT,Creatinine,BIOCHEMISTRY,106.6,umol/L,,,106.6,106.6,umol/L,,,,14682-9,SERUM,,,TREATMENT,2200,VISIT 22 (WEEK 20),2019-06-06,141
CDISC-TEST,LB,CDISC-TEST-021,936,945,CREAT,Creatinine,BIOCHEMISTRY,138.67,umol/L,,,138.67,138.67,umol/L,,,,14682-9,SERUM,,,FOLLOW-UP,2900,END OF TRIAL,2019-08-17,213
CDISC-TEST,LB,CDISC-TEST-021,937,923,HBA1CHGB,Hemoglobin A1C/Hemoglobin,GLUCOSE METABOLISM,27,mmol/mol,,,27,27,mmol/mol,,,,59261-8,BLOOD,,,TREATMENT,200,VISIT 2 (WEEK 0),2019-01-17,1
CDISC-TEST,LB,CDISC-TEST-021,938,932,HBA1CHGB,Hemoglobin A1C/Hemoglobin,GLUCOSE METABOLISM,54.82,mmol/mol,,,54.82,54.82,mmol/mol,,,,59261-8,BLOOD,,,TREATMENT,300,VISIT 3 (WEEK 1),2019-01-24,8
CDISC-TEST,LB,CDISC-TEST-021,939,943,HBA1CHGB,Hemoglobin A1C/Hemoglobin,GLUCOSE METABOLISM,89.72,mmol/mol,,,89.72,89.72,mmol/mol,,,,59261-8,BLOOD,,,TREATMENT,900,VISIT 9 (WEEK 7),2019-03-07,50
CDISC-TEST,LB,CDISC-TEST-021,940,921,HBA1CHGB,Hemoglobin A1C/Hemoglobin,GLUCOSE METABOLISM,75.55,mmol/mol,,,75.55,75.55,mmol/mol,,,,59261-8,BLOOD,,,TREATMENT,1400,VISIT 14 (WEEK 12),2019-04-11,85
CDISC-TEST,LB,CDISC-TEST-021,941,933,HBA1CHGB,Hemoglobin A1C/Hemoglobin,GLUCOSE METABOLISM,76.96,mmol/mol,,,76.96,76.95999999999998,mmol/mol,,,,59261-8,BLOOD,,,TREATMENT,1900,VISIT 19 (WEEK 17),2019-05-16,120
CDISC-TEST,LB,CDISC-TEST-021,942,956,HBA1CHGB,Hemoglobin A1C/Hemoglobin,GLUCOSE METABOLISM,91.43,mmol/mol,,,91.43,91.43,mmol/mol,,,,59261-8,BLOOD,,,TREATMENT,2000,VISIT 20 (WEEK 18),2019-05-23,127
CDISC-TEST,LB,CDISC-TEST-021,943,944,HBA1CHGB,Hemoglobin A1C/Hemoglobin,GLUCOSE METABOLISM,79.01,mmol/mol,,,79.01,79.01,mmol/mol,,,,59261-8,BLOOD,,,TREATMENT,2100,VISIT 21 (WEEK 19),2019-05-30,134
CDISC-TEST,LB,CDISC-TEST-021,944,958,HBA1CHGB,Hemoglobin A1C/Hemoglobin,GLUCOSE METABOLISM,72.72,mmol/mol,,,72.72,72.72,mmol/mol,,,,59261-8,BLOOD,,,TREATMENT,2200,VISIT 22 (WEEK 20),2019-06-06,141
CDISC-TEST,LB,CDISC-TEST-021,945,955,HBA1CHGB,Hemoglobin A1C/Hemoglobin,GLUCOSE METABOLISM,43.31,mmol/mol,,,43.31,43.31,mmol/mol,,,,59261-8,BLOOD,,,TREATMENT,2800,VISIT 28 (WEEK 26),2019-07-18,183
CDISC-TEST,LB,CDISC-TEST-021,946,946,HBA1CHGB,Hemoglobin A1C/Hemoglobin,GLUCOSE METABOLISM,50.03,mmol/mol,,,50.03,50.03,mmol/mol,,,,59261-8,BLOOD,,,FOLLOW-UP,2900,END OF TRIAL,2019-08-17,213
CDISC-TEST,LB,CDISC-TEST-021,947,941,HCT,Hematocrit,HAEMATOLOGY,37.37,%,,,37.37,37.37,%,,,,20570-8,BLOOD,,,SCREENING,100,VISIT 1 (WEEK -2),2019-01-02,-15
CDISC-TEST,LB,CDISC-TEST-021,948,930,HCT,Hematocrit,HAEMATOLOGY,43.41,%,,,43.41,43.41,%,,,,20570-8,BLOOD,,,TREATMENT,200,VISIT 2 (WEEK 0),2019-01-17,1
CDISC-TEST,LB,CDISC-TEST-021,949,965,HCT,Hematocrit,HAEMATOLOGY,36.85,%,,,36.85,36.85,%,,,,20570-8,BLOOD,,,TREATMENT,2200,VISIT 22 (WEEK 20),2019-06-06,141
CDISC-TEST,LB,CDISC-TEST-021,950,953,HCT,Hematocrit,HAEMATOLOGY,42.87,%,,,42.87,42.87,%,,,,20570-8,BLOOD,,,FOLLOW-UP,2900,END OF TRIAL,2019-08-17,213
CDISC-TEST,LB,CDISC-TEST-021,951,940,HDL,HDL Cholesterol,LIPIDS,0.48,mmol/L,,,0.48,0.48,mmol/L,,,,14646-4,SERUM,,,SCREENING,100,VISIT 1 (WEEK -2),2019-01-02,-15
CDISC-TEST,LB,CDISC-TEST-021,952,929,HDL,HDL Cholesterol,LIPIDS,1.14,mmol/L,,,1.14,1.14,mmol/L,,,,14646-4,SERUM,,,TREATMENT,200,VISIT 2 (WEEK 0),2019-01-17,1
CDISC-TEST,LB,CDISC-TEST-021,953,964,HDL,HDL Cholesterol,LIPIDS,1.16,mmol/L,,,1.16,1.16,mmol/L,,,,14646-4,SERUM,,,TREATMENT,2200,VISIT 22 (WEEK 20),2019-06-06,141
CDISC-TEST,LB,CDISC-TEST-021,954,952,HDL,HDL Cholesterol,LIPIDS,0.93,mmol/L,,,0.93,0.93,mmol/L,,,,14646-4,SERUM,,,FOLLOW-UP,2900,END OF TRIAL,2019-08-17,213
CDISC-TEST,LB,CDISC-TEST-021,955,938,HGB,Hemoglobin,HAEMATOLOGY,7.96,mmol/L,,,7.96,7.96,mmol/L,,,,718-7,BLOOD,,,SCREENING,100,VISIT 1 (WEEK -2),2019-01-02,-15
CDISC-TEST,LB,CDISC-TEST-021,956,927,HGB,Hemoglobin,HAEMATOLOGY,9.88,mmol/L,,,9.88,9.88,mmol/L,,,,718-7,BLOOD,,,TREATMENT,200,VISIT 2 (WEEK 0),2019-01-17,1
CDISC-TEST,LB,CDISC-TEST-021,957,962,HGB,Hemoglobin,HAEMATOLOGY,8.76,mmol/L,,,8.76,8.76,mmol/L,,,,718-7,BLOOD,,,TREATMENT,2200,VISIT 22 (WEEK 20),2019-06-06,141
CDISC-TEST,LB,CDISC-TEST-021,958,950,HGB,Hemoglobin,HAEMATOLOGY,9.17,mmol/L,,,9.17,9.17,mmol/L,,,,718-7,BLOOD,,,FOLLOW-UP,2900,END OF TRIAL,2019-08-17,213
CDISC-TEST,LB,CDISC-TEST-021,959,937,LDL,LDL Cholesterol,LIPIDS,3.08,mmol/L,,,3.08,3.08,mmol/L,,,,22748-8,SERUM,,,SCREENING,100,VISIT 1 (WEEK -2),2019-01-02,-15
CDISC-TEST,LB,CDISC-TEST-021,960,926,LDL,LDL Cholesterol,LIPIDS,0.68,mmol/L,,,0.68,0.68,mmol/L,,,,22748-8,SERUM,,,TREATMENT,200,VISIT 2 (WEEK 0),2019-01-17,1
CDISC-TEST,LB,CDISC-TEST-021,961,961,LDL,LDL Cholesterol,LIPIDS,0.95,mmol/L,,,0.95,0.95,mmol/L,,,,22748-8,SERUM,,,TREATMENT,2200,VISIT 22 (WEEK 20),2019-06-06,141
CDISC-TEST,LB,CDISC-TEST-021,962,949,LDL,LDL Cholesterol,LIPIDS,3.39,mmol/L,,,3.39,3.39,mmol/L,,,,22748-8,SERUM,,,FOLLOW-UP,2900,END OF TRIAL,2019-08-17,213
CDISC-TEST,LB,CDISC-TEST-021,963,936,PLAT,Platelets,HAEMATOLOGY,215.36,10^9/L,,,215.36,215.36,10^9/L,,,,26515-7,BLOOD,,,SCREENING,100,VISIT 1 (WEEK -2),2019-01-02,-15
CDISC-TEST,LB,CDISC-TEST-021,964,925,PLAT,Platelets,HAEMATOLOGY,238.44,10^9/L,,,238.44,238.44,10^9/L,,,,26515-7,BLOOD,,,TREATMENT,200,VISIT 2 (WEEK 0),2019-01-17,1
CDISC-TEST,LB,CDISC-TEST-021,965,960,PLAT,Platelets,HAEMATOLOGY,144.94,10^9/L,,,144.94,144.94,10^9/L,,,,26515-7,BLOOD,,,TREATMENT,2200,VISIT 22 (WEEK 20),2019-06-06,141
CDISC-TEST,LB,CDISC-TEST-021,966,948,PLAT,Platelets,HAEMATOLOGY,194.17,10^9/L,,,194.17,194.17,10^9/L,,,,26515-7,BLOOD,,,FOLLOW-UP,2900,END OF TRIAL,2019-08-17,213
CDISC-TEST,LB,CDISC-TEST-022,967,975,ALB,Albumin,BIOCHEMISTRY,4.07,g/dL,,,4.07,4.07,g/dL,,,,1751-7,SERUM,,,SCREENING,100,VISIT 1 (WEEK -2),2019-02-11,-15
CDISC-TEST,LB,CDISC-TEST-022,968,987,ALB,Albumin,BIOCHEMISTRY,4.42,g/dL,,,4.42,4.42,g/dL,,,,1751-7,SERUM,,,TREATMENT,200,VISIT 2 (WEEK 0),2019-02-26,1
CDISC-TEST,LB,CDISC-TEST-022,969,999,ALB,Albumin,BIOCHEMISTRY,4.34,g/dL,,,4.34,4.34,g/dL,,,,1751-7,SERUM,,,TREATMENT,2200,VISIT 22 (WEEK 20),2019-07-16,141
CDISC-TEST,LB,CDISC-TEST-022,970,1011,ALB,Albumin,BIOCHEMISTRY,4.4,g/dL,,,4.4,4.4,g/dL,,,,1751-7,SERUM,,,FOLLOW-UP,2900,END OF TRIAL,2019-09-26,213
CDISC-TEST,LB,CDISC-TEST-022,971,972,ALT,Alanine Aminotransferase,BIOCHEMISTRY,37.42,U/L,,,37.42,37.42,U/L,,,,1742-6,SERUM,,,SCREENING,100,VISIT 1 (WEEK -2),2019-02-11,-15
CDISC-TEST,LB,CDISC-TEST-022,972,984,ALT,Alanine Aminotransferase,BIOCHEMISTRY,10.86,U/L,,,10.86,10.86,U/L,,,,1742-6,SERUM,,,TREATMENT,200,VISIT 2 (WEEK 0),2019-02-26,1
CDISC-TEST,LB,CDISC-TEST-022,973,996,ALT,Alanine Aminotransferase,BIOCHEMISTRY,64.09,U/L,,,64.09,64.09,U/L,,,,1742-6,SERUM,,,TREATMENT,2200,VISIT 22 (WEEK 20),2019-07-16,141
CDISC-TEST,LB,CDISC-TEST-022,974,1008,ALT,Alanine Aminotransferase,BIOCHEMISTRY,52.19,U/L,,,52.19,52.19,U/L,,,,1742-6,SERUM,,,FOLLOW-UP,2900,END OF TRIAL,2019-09-26,213
CDISC-TEST,LB,CDISC-TEST-022,975,968,CHOL,Cholesterol,LIPIDS,5.9,mmol/L,,,5.9,5.9,mmol/L,,,,2093-3,SERUM,,,SCREENING,100,VISIT 1 (WEEK -2),2019-02-11,-15
CDISC-TEST,LB,CDISC-TEST-022,976,980,CHOL,Cholesterol,LIPIDS,4.43,mmol/L,,,4.43,4.43,mmol/L,,,,2093-3,SERUM,,,TREATMENT,200,VISIT 2 (WEEK 0),2019-02-26,1
CDISC-TEST,LB,CDISC-TEST-022,977,992,CHOL,Cholesterol,LIPIDS,3.57,mmol/L,,,3.57,3.57,mmol/L,,,,2093-3,SERUM,,,TREATMENT,2200,VISIT 22 (WEEK 20),2019-07-16,141
CDISC-TEST,LB,CDISC-TEST-022,978,1004,CHOL,Cholesterol,LIPIDS,3.65,mmol/L,,,3.65,3.65,mmol/L,,,,2093-3,SERUM,,,FOLLOW-UP,2900,END OF TRIAL,2019-09-26,213
CDISC-TEST,LB,CDISC-TEST-022,979,967,CREAT,Creatinine,BIOCHEMISTRY,139.43,umol/L,,,139.43,139.43,umol/L,,,,14682-9,SERUM,,,SCREENING,100,VISIT 1 (WEEK -2),2019-02-11,-15
CDISC-TEST,LB,CDISC-TEST-022,980,978,CREAT,Creatinine,BIOCHEMISTRY,127.34,umol/L,,,127.34,127.34,umol/L,,,,14682-9,SERUM,,,TREATMENT,200,VISIT 2 (WEEK 0),2019-02-26,1
CDISC-TEST,LB,CDISC-TEST-022,981,990,CREAT,Creatinine,BIOCHEMISTRY,48.96,umol/L,,,48.96,48.96,umol/L,,,,14682-9,SERUM,,,TREATMENT,2200,VISIT 22 (WEEK 20),2019-07-16,141
CDISC-TEST,LB,CDISC-TEST-022,982,1002,CREAT,Creatinine,BIOCHEMISTRY,124.96,umol/L,,,124.96,124.96,umol/L,,,,14682-9,SERUM,,,FOLLOW-UP,2900,END OF TRIAL,2019-09-26,213
CDISC-TEST,LB,CDISC-TEST-022,983,979,HBA1CHGB,Hemoglobin A1C/Hemoglobin,GLUCOSE METABOLISM,74.38,mmol/mol,,,74.38,74.38,mmol/mol,,,,59261-8,BLOOD,,,TREATMENT,200,VISIT 2 (WEEK 0),2019-02-26,1
CDISC-TEST,LB,CDISC-TEST-022,984,988,HBA1CHGB,Hemoglobin A1C/Hemoglobin,GLUCOSE METABOLISM,85.26,mmol/mol,,,85.26,85.26,mmol/mol,,,,59261-8,BLOOD,,,TREATMENT,300,VISIT 3 (WEEK 1),2019-03-05,8
CDISC-TEST,LB,CDISC-TEST-022,985,977,HBA1CHGB,Hemoglobin A1C/Hemoglobin,GLUCOSE METABOLISM,49.42,mmol/mol,,,49.42,49.42,mmol/mol,,,,59261-8,BLOOD,,,TREATMENT,900,VISIT 9 (WEEK 7),2019-04-16,50
CDISC-TEST,LB,CDISC-TEST-022,986,976,HBA1CHGB,Hemoglobin A1C/Hemoglobin,GLUCOSE METABOLISM,80.98,mmol/mol,,,80.98,80.98,mmol/mol,,,,59261-8,BLOOD,,,TREATMENT,1400,VISIT 14 (WEEK 12),2019-05-21,85
CDISC-TEST,LB,CDISC-TEST-022,987,1001,HBA1CHGB,Hemoglobin A1C/Hemoglobin,GLUCOSE METABOLISM,42.25,mmol/mol,,,42.25,42.25,mmol/mol,,,,59261-8,BLOOD,,,TREATMENT,1900,VISIT 19 (WEEK 17),2019-06-25,120
CDISC-TEST,LB,CDISC-TEST-022,988,989,HBA1CHGB,Hemoglobin A1C/Hemoglobin,GLUCOSE METABOLISM,39.39,mmol/mol,,,39.39,39.39,mmol/mol,,,,59261-8,BLOOD,,,TREATMENT,2000,VISIT 20 (WEEK 18),2019-07-02,127
CDISC-TEST,LB,CDISC-TEST-022,989,1012,HBA1CHGB,Hemoglobin A1C/Hemoglobin,GLUCOSE METABOLISM,84.63,mmol/mol,,,84.63,84.63,mmol/mol,,,,59261-8,BLOOD,,,TREATMENT,2100,VISIT 21 (WEEK 19),2019-07-09,134
CDISC-TEST,LB,CDISC-TEST-022,990,991,HBA1CHGB,Hemoglobin A1C/Hemoglobin,GLUCOSE METABOLISM,53.66,mmol/mol,,,53.66,53.66,mmol/mol,,,,59261-8,BLOOD,,,TREATMENT,2200,VISIT 22 (WEEK 20),2019-07-16,141
CDISC-TEST,LB,CDISC-TEST-022,991,1000,HBA1CHGB,Hemoglobin A1C/Hemoglobin,GLUCOSE METABOLISM,55.24,mmol/mol,,,55.24,55.24,mmol/mol,,,,59261-8,BLOOD,,,TREATMENT,2800,VISIT 28 (WEEK 26),2019-08-27,183
CDISC-TEST,LB,CDISC-TEST-022,992,1003,HBA1CHGB,Hemoglobin A1C/Hemoglobin,GLUCOSE METABOLISM,61.62,mmol/mol,,,61.62,61.62,mmol/mol,,,,59261-8,BLOOD,,,FOLLOW-UP,2900,END OF TRIAL,2019-09-26,213
CDISC-TEST,LB,CDISC-TEST-022,993,974,HCT,Hematocrit,HAEMATOLOGY,39.89,%,,,39.89,39.89,%,,,,20570-8,BLOOD,,,SCREENING,100,VISIT 1 (WEEK -2),2019-02-11,-15
CDISC-TEST,LB,CDISC-TEST-022,994,986,HCT,Hematocrit,HAEMATOLOGY,47.2,%,,,47.2,47.2,%,,,,20570-8,BLOOD,,,TREATMENT,200,VISIT 2 (WEEK 0),2019-02-26,1
CDISC-TEST,LB,CDISC-TEST-022,995,998,HCT,Hematocrit,HAEMATOLOGY,44.96,%,,,44.96,44.96,%,,,,20570-8,BLOOD,,,TREATMENT,2200,VISIT 22 (WEEK 20),2019-07-16,141
CDISC-TEST,LB,CDISC-TEST-022,996,1010,HCT,Hematocrit,HAEMATOLOGY,38.3,%,,,38.3,38.3,%,,,,20570-8,BLOOD,,,FOLLOW-UP,2900,END OF TRIAL,2019-09-26,213
CDISC-TEST,LB,CDISC-TEST-022,997,973,HDL,HDL Cholesterol,LIPIDS,1.17,mmol/L,,,1.17,1.17,mmol/L,,,,14646-4,SERUM,,,SCREENING,100,VISIT 1 (WEEK -2),2019-02-11,-15
CDISC-TEST,LB,CDISC-TEST-022,998,985,HDL,HDL Cholesterol,LIPIDS,1.44,mmol/L,,,1.44,1.44,mmol/L,,,,14646-4,SERUM,,,TREATMENT,200,VISIT 2 (WEEK 0),2019-02-26,1
CDISC-TEST,LB,CDISC-TEST-022,999,997,HDL,HDL Cholesterol,LIPIDS,1.23,mmol/L,,,1.23,1.23,mmol/L,,,,14646-4,SERUM,,,TREATMENT,2200,VISIT 22 (WEEK 20),2019-07-16,141
CDISC-TEST,LB,CDISC-TEST-022,1000,1009,HDL,HDL Cholesterol,LIPIDS,0.95,mmol/L,,,0.95,0.95,mmol/L,,,,14646-4,SERUM,,,FOLLOW-UP,2900,END OF TRIAL,2019-09-26,213
CDISC-TEST,LB,CDISC-TEST-022,1001,971,HGB,Hemoglobin,HAEMATOLOGY,8.4,mmol/L,,,8.4,8.4,mmol/L,,,,718-7,BLOOD,,,SCREENING,100,VISIT 1 (WEEK -2),2019-02-11,-15
CDISC-TEST,LB,CDISC-TEST-022,1002,983,HGB,Hemoglobin,HAEMATOLOGY,8.39,mmol/L,,,8.39,8.39,mmol/L,,,,718-7,BLOOD,,,TREATMENT,200,VISIT 2 (WEEK 0),2019-02-26,1
CDISC-TEST,LB,CDISC-TEST-022,1003,995,HGB,Hemoglobin,HAEMATOLOGY,8.22,mmol/L,,,8.22,8.22,mmol/L,,,,718-7,BLOOD,,,TREATMENT,2200,VISIT 22 (WEEK 20),2019-07-16,141
CDISC-TEST,LB,CDISC-TEST-022,1004,1007,HGB,Hemoglobin,HAEMATOLOGY,9.12,mmol/L,,,9.12,9.12,mmol/L,,,,718-7,BLOOD,,,FOLLOW-UP,2900,END OF TRIAL,2019-09-26,213
CDISC-TEST,LB,CDISC-TEST-022,1005,970,LDL,LDL Cholesterol,LIPIDS,1.8,mmol/L,,,1.8,1.8,mmol/L,,,,22748-8,SERUM,,,SCREENING,100,VISIT 1 (WEEK -2),2019-02-11,-15
CDISC-TEST,LB,CDISC-TEST-022,1006,982,LDL,LDL Cholesterol,LIPIDS,1.66,mmol/L,,,1.66,1.66,mmol/L,,,,22748-8,SERUM,,,TREATMENT,200,VISIT 2 (WEEK 0),2019-02-26,1
CDISC-TEST,LB,CDISC-TEST-022,1007,994,LDL,LDL Cholesterol,LIPIDS,0.45,mmol/L,,,0.45,0.45,mmol/L,,,,22748-8,SERUM,,,TREATMENT,2200,VISIT 22 (WEEK 20),2019-07-16,141
CDISC-TEST,LB,CDISC-TEST-022,1008,1006,LDL,LDL Cholesterol,LIPIDS,1.63,mmol/L,,,1.63,1.63,mmol/L,,,,22748-8,SERUM,,,FOLLOW-UP,2900,END OF TRIAL,2019-09-26,213
CDISC-TEST,LB,CDISC-TEST-022,1009,969,PLAT,Platelets,HAEMATOLOGY,338.17,10^9/L,,,338.17,338.17,10^9/L,,,,26515-7,BLOOD,,,SCREENING,100,VISIT 1 (WEEK -2),2019-02-11,-15
CDISC-TEST,LB,CDISC-TEST-022,1010,981,PLAT,Platelets,HAEMATOLOGY,194.26,10^9/L,,,194.26,194.26,10^9/L,,,,26515-7,BLOOD,,,TREATMENT,200,VISIT 2 (WEEK 0),2019-02-26,1
CDISC-TEST,LB,CDISC-TEST-022,1011,993,PLAT,Platelets,HAEMATOLOGY,364.64,10^9/L,,,364.64,364.64,10^9/L,,,,26515-7,BLOOD,,,TREATMENT,2200,VISIT 22 (WEEK 20),2019-07-16,141
CDISC-TEST,LB,CDISC-TEST-022,1012,1005,PLAT,Platelets,HAEMATOLOGY,239.3,10^9/L,,,239.3,239.3,10^9/L,,,,26515-7,BLOOD,,,FOLLOW-UP,2900,END OF TRIAL,2019-09-26,213
CDISC-TEST,LB,CDISC-TEST-023,1013,1021,ALB,Albumin,BIOCHEMISTRY,4.39,g/dL,,,4.39,4.39,g/dL,,,,1751-7,SERUM,,,SCREENING,100,VISIT 1 (WEEK -2),2019-02-26,-15
CDISC-TEST,LB,CDISC-TEST-023,1014,1035,ALB,Albumin,BIOCHEMISTRY,3.97,g/dL,,,3.97,3.97,g/dL,,,,1751-7,SERUM,,,TREATMENT,200,VISIT 2 (WEEK 0),2019-03-13,1
CDISC-TEST,LB,CDISC-TEST-023,1015,1047,ALB,Albumin,BIOCHEMISTRY,4.2,g/dL,,,4.2,4.2,g/dL,,,,1751-7,SERUM,,,TREATMENT,2200,VISIT 22 (WEEK 20),2019-07-31,141
CDISC-TEST,LB,CDISC-TEST-023,1016,1057,ALB,Albumin,BIOCHEMISTRY,3.58,g/dL,,,3.58,3.58,g/dL,,,,1751-7,SERUM,,,FOLLOW-UP,2900,END OF TRIAL,2019-10-11,213
CDISC-TEST,LB,CDISC-TEST-023,1017,1018,ALT,Alanine Aminotransferase,BIOCHEMISTRY,16.16,U/L,,,16.16,16.16,U/L,,,,1742-6,SERUM,,,SCREENING,100,VISIT 1 (WEEK -2),2019-02-26,-15
CDISC-TEST,LB,CDISC-TEST-023,1018,1032,ALT,Alanine Aminotransferase,BIOCHEMISTRY,10.52,U/L,,,10.52,10.52,U/L,,,,1742-6,SERUM,,,TREATMENT,200,VISIT 2 (WEEK 0),2019-03-13,1
CDISC-TEST,LB,CDISC-TEST-023,1019,1044,ALT,Alanine Aminotransferase,BIOCHEMISTRY,9.14,U/L,,,9.14,9.14,U/L,,,,1742-6,SERUM,,,TREATMENT,2200,VISIT 22 (WEEK 20),2019-07-31,141
CDISC-TEST,LB,CDISC-TEST-023,1020,1054,ALT,Alanine Aminotransferase,BIOCHEMISTRY,29.63,U/L,,,29.63,29.63,U/L,,,,1742-6,SERUM,,,FOLLOW-UP,2900,END OF TRIAL,2019-10-11,213
CDISC-TEST,LB,CDISC-TEST-023,1021,1014,CHOL,Cholesterol,LIPIDS,3.81,mmol/L,,,3.81,3.81,mmol/L,,,,2093-3,SERUM,,,SCREENING,100,VISIT 1 (WEEK -2),2019-02-26,-15
CDISC-TEST,LB,CDISC-TEST-023,1022,1028,CHOL,Cholesterol,LIPIDS,4.45,mmol/L,,,4.45,4.45,mmol/L,,,,2093-3,SERUM,,,TREATMENT,200,VISIT 2 (WEEK 0),2019-03-13,1
CDISC-TEST,LB,CDISC-TEST-023,1023,1040,CHOL,Cholesterol,LIPIDS,6.07,mmol/L,,,6.07,6.07,mmol/L,,,,2093-3,SERUM,,,TREATMENT,2200,VISIT 22 (WEEK 20),2019-07-31,141
CDISC-TEST,LB,CDISC-TEST-023,1024,1050,CHOL,Cholesterol,LIPIDS,4.03,mmol/L,,,4.03,4.03,mmol/L,,,,2093-3,SERUM,,,FOLLOW-UP,2900,END OF TRIAL,2019-10-11,213
CDISC-TEST,LB,CDISC-TEST-023,1025,1013,CREAT,Creatinine,BIOCHEMISTRY,104.4,umol/L,,,104.4,104.4,umol/L,,,,14682-9,SERUM,,,SCREENING,100,VISIT 1 (WEEK -2),2019-02-26,-15
CDISC-TEST,LB,CDISC-TEST-023,1026,1026,CREAT,Creatinine,BIOCHEMISTRY,122.83,umol/L,,,122.83,122.83,umol/L,,,,14682-9,SERUM,,,TREATMENT,200,VISIT 2 (WEEK 0),2019-03-13,1
CDISC-TEST,LB,CDISC-TEST-023,1027,1038,CREAT,Creatinine,BIOCHEMISTRY,96.33,umol/L,,,96.33,96.33,umol/L,,,,14682-9,SERUM,,,TREATMENT,2200,VISIT 22 (WEEK 20),2019-07-31,141
CDISC-TEST,LB,CDISC-TEST-023,1028,1048,CREAT,Creatinine,BIOCHEMISTRY,171.58,umol/L,,,171.58,171.58,umol/L,,,,14682-9,SERUM,,,FOLLOW-UP,2900,END OF TRIAL,2019-10-11,213
CDISC-TEST,LB,CDISC-TEST-023,1029,1027,HBA1CHGB,Hemoglobin A1C/Hemoglobin,GLUCOSE METABOLISM,71.52,mmol/mol,,,71.52,71.52,mmol/mol,,,,59261-8,BLOOD,,,TREATMENT,200,VISIT 2 (WEEK 0),2019-03-13,1
CDISC-TEST,LB,CDISC-TEST-023,1030,1022,HBA1CHGB,Hemoglobin A1C/Hemoglobin,GLUCOSE METABOLISM,78.14,mmol/mol,,,78.14,78.14,mmol/mol,,,,59261-8,BLOOD,,,TREATMENT,300,VISIT 3 (WEEK 1),2019-03-20,8
CDISC-TEST,LB,CDISC-TEST-023,1031,1025,HBA1CHGB,Hemoglobin A1C/Hemoglobin,GLUCOSE METABOLISM,62.09,mmol/mol,,,62.09,62.09,mmol/mol,,,,59261-8,BLOOD,,,TREATMENT,900,VISIT 9 (WEEK 7),2019-05-01,50
CDISC-TEST,LB,CDISC-TEST-023,1032,1024,HBA1CHGB,Hemoglobin A1C/Hemoglobin,GLUCOSE METABOLISM,61.33,mmol/mol,,,61.33,61.33,mmol/mol,,,,59261-8,BLOOD,,,TREATMENT,1400,VISIT 14 (WEEK 12),2019-06-05,85
CDISC-TEST,LB,CDISC-TEST-023,1033,1058,HBA1CHGB,Hemoglobin A1C/Hemoglobin,GLUCOSE METABOLISM,70.3,mmol/mol,,,70.3,70.3,mmol/mol,,,,59261-8,BLOOD,,,TREATMENT,1900,VISIT 19 (WEEK 17),2019-07-10,120
CDISC-TEST,LB,CDISC-TEST-023,1034,1023,HBA1CHGB,Hemoglobin A1C/Hemoglobin,GLUCOSE METABOLISM,69.51,mmol/mol,,,69.51,69.51,mmol/mol,,,,59261-8,BLOOD,,,TREATMENT,2000,VISIT 20 (WEEK 18),2019-07-17,127
CDISC-TEST,LB,CDISC-TEST-023,1035,1037,HBA1CHGB,Hemoglobin A1C/Hemoglobin,GLUCOSE METABOLISM,69.35,mmol/mol,,,69.35,69.35,mmol/mol,,,,59261-8,BLOOD,,,TREATMENT,2100,VISIT 21 (WEEK 19),2019-07-24,134
CDISC-TEST,LB,CDISC-TEST-023,1036,1039,HBA1CHGB,Hemoglobin A1C/Hemoglobin,GLUCOSE METABOLISM,55.55,mmol/mol,,,55.55,55.55,mmol/mol,,,,59261-8,BLOOD,,,TREATMENT,2200,VISIT 22 (WEEK 20),2019-07-31,141
CDISC-TEST,LB,CDISC-TEST-023,1037,1036,HBA1CHGB,Hemoglobin A1C/Hemoglobin,GLUCOSE METABOLISM,28.6,mmol/mol,,,28.6,28.6,mmol/mol,,,,59261-8,BLOOD,,,TREATMENT,2800,VISIT 28 (WEEK 26),2019-09-11,183
CDISC-TEST,LB,CDISC-TEST-023,1038,1049,HBA1CHGB,Hemoglobin A1C/Hemoglobin,GLUCOSE METABOLISM,64.15,mmol/mol,,,64.15,64.15,mmol/mol,,,,59261-8,BLOOD,,,FOLLOW-UP,2900,END OF TRIAL,2019-10-11,213
CDISC-TEST,LB,CDISC-TEST-023,1039,1020,HCT,Hematocrit,HAEMATOLOGY,33.73,%,,,33.73,33.73,%,,,,20570-8,BLOOD,,,SCREENING,100,VISIT 1 (WEEK -2),2019-02-26,-15
CDISC-TEST,LB,CDISC-TEST-023,1040,1034,HCT,Hematocrit,HAEMATOLOGY,47.02,%,,,47.02,47.02,%,,,,20570-8,BLOOD,,,TREATMENT,200,VISIT 2 (WEEK 0),2019-03-13,1
CDISC-TEST,LB,CDISC-TEST-023,1041,1046,HCT,Hematocrit,HAEMATOLOGY,40.53,%,,,40.53,40.53,%,,,,20570-8,BLOOD,,,TREATMENT,2200,VISIT 22 (WEEK 20),2019-07-31,141
CDISC-TEST,LB,CDISC-TEST-023,1042,1056,HCT,Hematocrit,HAEMATOLOGY,42.94,%,,,42.94,42.94,%,,,,20570-8,BLOOD,,,FOLLOW-UP,2900,END OF TRIAL,2019-10-11,213
CDISC-TEST,LB,CDISC-TEST-023,1043,1019,HDL,HDL Cholesterol,LIPIDS,1.41,mmol/L,,,1.41,1.41,mmol/L,,,,14646-4,SERUM,,,SCREENING,100,VISIT 1 (WEEK -2),2019-02-26,-15
CDISC-TEST,LB,CDISC-TEST-023,1044,1033,HDL,HDL Cholesterol,LIPIDS,0.7,mmol/L,,,0.7,0.7,mmol/L,,,,14646-4,SERUM,,,TREATMENT,200,VISIT 2 (WEEK 0),2019-03-13,1
CDISC-TEST,LB,CDISC-TEST-023,1045,1045,HDL,HDL Cholesterol,LIPIDS,0.89,mmol/L,,,0.89,0.89,mmol/L,,,,14646-4,SERUM,,,TREATMENT,2200,VISIT 22 (WEEK 20),2019-07-31,141
CDISC-TEST,LB,CDISC-TEST-023,1046,1055,HDL,HDL Cholesterol,LIPIDS,0.77,mmol/L,,,0.77,0.77,mmol/L,,,,14646-4,SERUM,,,FOLLOW-UP,2900,END OF TRIAL,2019-10-11,213
CDISC-TEST,LB,CDISC-TEST-023,1047,1017,HGB,Hemoglobin,HAEMATOLOGY,6.72,mmol/L,,,6.72,6.72,mmol/L,,,,718-7,BLOOD,,,SCREENING,100,VISIT 1 (WEEK -2),2019-02-26,-15
CDISC-TEST,LB,CDISC-TEST-023,1048,1031,HGB,Hemoglobin,HAEMATOLOGY,8.97,mmol/L,,,8.97,8.97,mmol/L,,,,718-7,BLOOD,,,TREATMENT,200,VISIT 2 (WEEK 0),2019-03-13,1
CDISC-TEST,LB,CDISC-TEST-023,1049,1043,HGB,Hemoglobin,HAEMATOLOGY,8.22,mmol/L,,,8.22,8.22,mmol/L,,,,718-7,BLOOD,,,TREATMENT,2200,VISIT 22 (WEEK 20),2019-07-31,141
CDISC-TEST,LB,CDISC-TEST-023,1050,1053,HGB,Hemoglobin,HAEMATOLOGY,7.22,mmol/L,,,7.22,7.22,mmol/L,,,,718-7,BLOOD,,,FOLLOW-UP,2900,END OF TRIAL,2019-10-11,213
CDISC-TEST,LB,CDISC-TEST-023,1051,1016,LDL,LDL Cholesterol,LIPIDS,2.06,mmol/L,,,2.06,2.06,mmol/L,,,,22748-8,SERUM,,,SCREENING,100,VISIT 1 (WEEK -2),2019-02-26,-15
CDISC-TEST,LB,CDISC-TEST-023,1052,1030,LDL,LDL Cholesterol,LIPIDS,1.64,mmol/L,,,1.64,1.64,mmol/L,,,,22748-8,SERUM,,,TREATMENT,200,VISIT 2 (WEEK 0),2019-03-13,1
CDISC-TEST,LB,CDISC-TEST-023,1053,1042,LDL,LDL Cholesterol,LIPIDS,1.97,mmol/L,,,1.97,1.97,mmol/L,,,,22748-8,SERUM,,,TREATMENT,2200,VISIT 22 (WEEK 20),2019-07-31,141
CDISC-TEST,LB,CDISC-TEST-023,1054,1052,LDL,LDL Cholesterol,LIPIDS,2.11,mmol/L,,,2.11,2.11,mmol/L,,,,22748-8,SERUM,,,FOLLOW-UP,2900,END OF TRIAL,2019-10-11,213
CDISC-TEST,LB,CDISC-TEST-023,1055,1015,PLAT,Platelets,HAEMATOLOGY,317.97,10^9/L,,,317.97,317.97,10^9/L,,,,26515-7,BLOOD,,,SCREENING,100,VISIT 1 (WEEK -2),2019-02-26,-15
CDISC-TEST,LB,CDISC-TEST-023,1056,1029,PLAT,Platelets,HAEMATOLOGY,294.52,10^9/L,,,294.52,294.52,10^9/L,,,,26515-7,BLOOD,,,TREATMENT,200,VISIT 2 (WEEK 0),2019-03-13,1
CDISC-TEST,LB,CDISC-TEST-023,1057,1041,PLAT,Platelets,HAEMATOLOGY,246.1,10^9/L,,,246.1,246.1,10^9/L,,,,26515-7,BLOOD,,,TREATMENT,2200,VISIT 22 (WEEK 20),2019-07-31,141
CDISC-TEST,LB,CDISC-TEST-023,1058,1051,PLAT,Platelets,HAEMATOLOGY,179.15,10^9/L,,,179.15,179.15,10^9/L,,,,26515-7,BLOOD,,,FOLLOW-UP,2900,END OF TRIAL,2019-10-11,213
CDISC-TEST,LB,CDISC-TEST-024,1059,1078,ALB,Albumin,BIOCHEMISTRY,4.46,g/dL,,,4.46,4.46,g/dL,,,,1751-7,SERUM,,,SCREENING,100,VISIT 1 (WEEK -2),2019-01-22,-15
CDISC-TEST,LB,CDISC-TEST-024,1060,1069,ALB,Albumin,BIOCHEMISTRY,4.2,g/dL,,,4.2,4.2,g/dL,,,,1751-7,SERUM,,,TREATMENT,200,VISIT 2 (WEEK 0),2019-02-06,1
CDISC-TEST,LB,CDISC-TEST-024,1061,1092,ALB,Albumin,BIOCHEMISTRY,4.12,g/dL,,,4.12,4.12,g/dL,,,,1751-7,SERUM,,,TREATMENT,2200,VISIT 22 (WEEK 20),2019-06-26,141
CDISC-TEST,LB,CDISC-TEST-024,1062,1104,ALB,Albumin,BIOCHEMISTRY,4.05,g/dL,,,4.05,4.05,g/dL,,,,1751-7,SERUM,,,FOLLOW-UP,2900,END OF TRIAL,2019-09-06,213
CDISC-TEST,LB,CDISC-TEST-024,1063,1075,ALT,Alanine Aminotransferase,BIOCHEMISTRY,5.23,U/L,,,5.23,5.23,U/L,,,,1742-6,SERUM,,,SCREENING,100,VISIT 1 (WEEK -2),2019-01-22,-15
CDISC-TEST,LB,CDISC-TEST-024,1064,1066,ALT,Alanine Aminotransferase,BIOCHEMISTRY,-6.07,U/L,,,-6.07,-6.07,U/L,,,,1742-6,SERUM,,,TREATMENT,200,VISIT 2 (WEEK 0),2019-02-06,1
CDISC-TEST,LB,CDISC-TEST-024,1065,1089,ALT,Alanine Aminotransferase,BIOCHEMISTRY,44.99,U/L,,,44.99,44.99,U/L,,,,1742-6,SERUM,,,TREATMENT,2200,VISIT 22 (WEEK 20),2019-06-26,141
CDISC-TEST,LB,CDISC-TEST-024,1066,1101,ALT,Alanine Aminotransferase,BIOCHEMISTRY,15.93,U/L,,,15.93,15.93,U/L,,,,1742-6,SERUM,,,FOLLOW-UP,2900,END OF TRIAL,2019-09-06,213
CDISC-TEST,LB,CDISC-TEST-024,1067,1071,CHOL,Cholesterol,LIPIDS,2.96,mmol/L,,,2.96,2.96,mmol/L,,,,2093-3,SERUM,,,SCREENING,100,VISIT 1 (WEEK -2),2019-01-22,-15
CDISC-TEST,LB,CDISC-TEST-024,1068,1062,CHOL,Cholesterol,LIPIDS,5.47,mmol/L,,,5.47,5.47,mmol/L,,,,2093-3,SERUM,,,TREATMENT,200,VISIT 2 (WEEK 0),2019-02-06,1
CDISC-TEST,LB,CDISC-TEST-024,1069,1085,CHOL,Cholesterol,LIPIDS,5.05,mmol/L,,,5.05,5.05,mmol/L,,,,2093-3,SERUM,,,TREATMENT,2200,VISIT 22 (WEEK 20),2019-06-26,141
CDISC-TEST,LB,CDISC-TEST-024,1070,1097,CHOL,Cholesterol,LIPIDS,5.11,mmol/L,,,5.11,5.11,mmol/L,,,,2093-3,SERUM,,,FOLLOW-UP,2900,END OF TRIAL,2019-09-06,213
CDISC-TEST,LB,CDISC-TEST-024,1071,1070,CREAT,Creatinine,BIOCHEMISTRY,85.24,umol/L,,,85.24,85.24,umol/L,,,,14682-9,SERUM,,,SCREENING,100,VISIT 1 (WEEK -2),2019-01-22,-15
CDISC-TEST,LB,CDISC-TEST-024,1072,1060,CREAT,Creatinine,BIOCHEMISTRY,98.39,umol/L,,,98.39,98.39,umol/L,,,,14682-9,SERUM,,,TREATMENT,200,VISIT 2 (WEEK 0),2019-02-06,1
CDISC-TEST,LB,CDISC-TEST-024,1073,1083,CREAT,Creatinine,BIOCHEMISTRY,74.4,umol/L,,,74.4,74.4,umol/L,,,,14682-9,SERUM,,,TREATMENT,2200,VISIT 22 (WEEK 20),2019-06-26,141
CDISC-TEST,LB,CDISC-TEST-024,1074,1095,CREAT,Creatinine,BIOCHEMISTRY,123.28,umol/L,,,123.28,123.28,umol/L,,,,14682-9,SERUM,,,FOLLOW-UP,2900,END OF TRIAL,2019-09-06,213
CDISC-TEST,LB,CDISC-TEST-024,1075,1061,HBA1CHGB,Hemoglobin A1C/Hemoglobin,GLUCOSE METABOLISM,62.11,mmol/mol,,,62.11,62.11,mmol/mol,,,,59261-8,BLOOD,,,TREATMENT,200,VISIT 2 (WEEK 0),2019-02-06,1
CDISC-TEST,LB,CDISC-TEST-024,1076,1059,HBA1CHGB,Hemoglobin A1C/Hemoglobin,GLUCOSE METABOLISM,76.88,mmol/mol,,,76.88,76.88,mmol/mol,,,,59261-8,BLOOD,,,TREATMENT,300,VISIT 3 (WEEK 1),2019-02-13,8
CDISC-TEST,LB,CDISC-TEST-024,1077,1093,HBA1CHGB,Hemoglobin A1C/Hemoglobin,GLUCOSE METABOLISM,83.06,mmol/mol,,,83.06,83.06,mmol/mol,,,,59261-8,BLOOD,,,TREATMENT,900,VISIT 9 (WEEK 7),2019-03-27,50
CDISC-TEST,LB,CDISC-TEST-024,1078,1079,HBA1CHGB,Hemoglobin A1C/Hemoglobin,GLUCOSE METABOLISM,36.49,mmol/mol,,,36.49,36.49,mmol/mol,,,,59261-8,BLOOD,,,TREATMENT,1400,VISIT 14 (WEEK 12),2019-05-01,85
CDISC-TEST,LB,CDISC-TEST-024,1079,1080,HBA1CHGB,Hemoglobin A1C/Hemoglobin,GLUCOSE METABOLISM,56.77,mmol/mol,,,56.77,56.77,mmol/mol,,,,59261-8,BLOOD,,,TREATMENT,1900,VISIT 19 (WEEK 17),2019-06-05,120
CDISC-TEST,LB,CDISC-TEST-024,1080,1081,HBA1CHGB,Hemoglobin A1C/Hemoglobin,GLUCOSE METABOLISM,69.43,mmol/mol,,,69.43,69.43,mmol/mol,,,,59261-8,BLOOD,,,TREATMENT,2000,VISIT 20 (WEEK 18),2019-06-12,127
CDISC-TEST,LB,CDISC-TEST-024,1081,1082,HBA1CHGB,Hemoglobin A1C/Hemoglobin,GLUCOSE METABOLISM,65.3,mmol/mol,,,65.3,65.3,mmol/mol,,,,59261-8,BLOOD,,,TREATMENT,2100,VISIT 21 (WEEK 19),2019-06-19,134
CDISC-TEST,LB,CDISC-TEST-024,1082,1084,HBA1CHGB,Hemoglobin A1C/Hemoglobin,GLUCOSE METABOLISM,62.94,mmol/mol,,,62.94,62.94,mmol/mol,,,,59261-8,BLOOD,,,TREATMENT,2200,VISIT 22 (WEEK 20),2019-06-26,141
CDISC-TEST,LB,CDISC-TEST-024,1083,1094,HBA1CHGB,Hemoglobin A1C/Hemoglobin,GLUCOSE METABOLISM,40.95,mmol/mol,,,40.95,40.95,mmol/mol,,,,59261-8,BLOOD,,,TREATMENT,2800,VISIT 28 (WEEK 26),2019-08-07,183
CDISC-TEST,LB,CDISC-TEST-024,1084,1096,HBA1CHGB,Hemoglobin A1C/Hemoglobin,GLUCOSE METABOLISM,42.02,mmol/mol,,,42.02,42.02,mmol/mol,,,,59261-8,BLOOD,,,FOLLOW-UP,2900,END OF TRIAL,2019-09-06,213
CDISC-TEST,LB,CDISC-TEST-024,1085,1077,HCT,Hematocrit,HAEMATOLOGY,43.4,%,,,43.4,43.4,%,,,,20570-8,BLOOD,,,SCREENING,100,VISIT 1 (WEEK -2),2019-01-22,-15
CDISC-TEST,LB,CDISC-TEST-024,1086,1068,HCT,Hematocrit,HAEMATOLOGY,41.89,%,,,41.89,41.89,%,,,,20570-8,BLOOD,,,TREATMENT,200,VISIT 2 (WEEK 0),2019-02-06,1
CDISC-TEST,LB,CDISC-TEST-024,1087,1091,HCT,Hematocrit,HAEMATOLOGY,42.07,%,,,42.07,42.07,%,,,,20570-8,BLOOD,,,TREATMENT,2200,VISIT 22 (WEEK 20),2019-06-26,141
CDISC-TEST,LB,CDISC-TEST-024,1088,1103,HCT,Hematocrit,HAEMATOLOGY,41.17,%,,,41.17,41.17,%,,,,20570-8,BLOOD,,,FOLLOW-UP,2900,END OF TRIAL,2019-09-06,213
CDISC-TEST,LB,CDISC-TEST-024,1089,1076,HDL,HDL Cholesterol,LIPIDS,1.34,mmol/L,,,1.34,1.34,mmol/L,,,,14646-4,SERUM,,,SCREENING,100,VISIT 1 (WEEK -2),2019-01-22,-15
CDISC-TEST,LB,CDISC-TEST-024,1090,1067,HDL,HDL Cholesterol,LIPIDS,1.39,mmol/L,,,1.39,1.39,mmol/L,,,,14646-4,SERUM,,,TREATMENT,200,VISIT 2 (WEEK 0),2019-02-06,1
CDISC-TEST,LB,CDISC-TEST-024,1091,1090,HDL,HDL Cholesterol,LIPIDS,1.28,mmol/L,,,1.28,1.28,mmol/L,,,,14646-4,SERUM,,,TREATMENT,2200,VISIT 22 (WEEK 20),2019-06-26,141
CDISC-TEST,LB,CDISC-TEST-024,1092,1102,HDL,HDL Cholesterol,LIPIDS,1.27,mmol/L,,,1.27,1.27,mmol/L,,,,14646-4,SERUM,,,FOLLOW-UP,2900,END OF TRIAL,2019-09-06,213
CDISC-TEST,LB,CDISC-TEST-024,1093,1074,HGB,Hemoglobin,HAEMATOLOGY,8.66,mmol/L,,,8.66,8.66,mmol/L,,,,718-7,BLOOD,,,SCREENING,100,VISIT 1 (WEEK -2),2019-01-22,-15
CDISC-TEST,LB,CDISC-TEST-024,1094,1065,HGB,Hemoglobin,HAEMATOLOGY,9.55,mmol/L,,,9.55,9.55,mmol/L,,,,718-7,BLOOD,,,TREATMENT,200,VISIT 2 (WEEK 0),2019-02-06,1
CDISC-TEST,LB,CDISC-TEST-024,1095,1088,HGB,Hemoglobin,HAEMATOLOGY,6.81,mmol/L,,,6.81,6.81,mmol/L,,,,718-7,BLOOD,,,TREATMENT,2200,VISIT 22 (WEEK 20),2019-06-26,141
CDISC-TEST,LB,CDISC-TEST-024,1096,1100,HGB,Hemoglobin,HAEMATOLOGY,8.38,mmol/L,,,8.38,8.38,mmol/L,,,,718-7,BLOOD,,,FOLLOW-UP,2900,END OF TRIAL,2019-09-06,213
CDISC-TEST,LB,CDISC-TEST-024,1097,1073,LDL,LDL Cholesterol,LIPIDS,1.24,mmol/L,,,1.24,1.24,mmol/L,,,,22748-8,SERUM,,,SCREENING,100,VISIT 1 (WEEK -2),2019-01-22,-15
CDISC-TEST,LB,CDISC-TEST-024,1098,1064,LDL,LDL Cholesterol,LIPIDS,1.05,mmol/L,,,1.05,1.05,mmol/L,,,,22748-8,SERUM,,,TREATMENT,200,VISIT 2 (WEEK 0),2019-02-06,1
CDISC-TEST,LB,CDISC-TEST-024,1099,1087,LDL,LDL Cholesterol,LIPIDS,2.38,mmol/L,,,2.38,2.38,mmol/L,,,,22748-8,SERUM,,,TREATMENT,2200,VISIT 22 (WEEK 20),2019-06-26,141
CDISC-TEST,LB,CDISC-TEST-024,1100,1099,LDL,LDL Cholesterol,LIPIDS,2.28,mmol/L,,,2.28,2.28,mmol/L,,,,22748-8,SERUM,,,FOLLOW-UP,2900,END OF TRIAL,2019-09-06,213
CDISC-TEST,LB,CDISC-TEST-024,1101,1072,PLAT,Platelets,HAEMATOLOGY,228.64,10^9/L,,,228.64,228.64,10^9/L,,,,26515-7,BLOOD,,,SCREENING,100,VISIT 1 (WEEK -2),2019-01-22,-15
CDISC-TEST,LB,CDISC-TEST-024,1102,1063,PLAT,Platelets,HAEMATOLOGY,183.1,10^9/L,,,183.1,183.1,10^9/L,,,,26515-7,BLOOD,,,TREATMENT,200,VISIT 2 (WEEK 0),2019-02-06,1
CDISC-TEST,LB,CDISC-TEST-024,1103,1086,PLAT,Platelets,HAEMATOLOGY,222.57,10^9/L,,,222.57,222.57,10^9/L,,,,26515-7,BLOOD,,,TREATMENT,2200,VISIT 22 (WEEK 20),2019-06-26,141
CDISC-TEST,LB,CDISC-TEST-024,1104,1098,PLAT,Platelets,HAEMATOLOGY,225.66,10^9/L,,,225.66,225.66,10^9/L,,,,26515-7,BLOOD,,,FOLLOW-UP,2900,END OF TRIAL,2019-09-06,213
CDISC-TEST,LB,CDISC-TEST-025,1105,1113,ALB,Albumin,BIOCHEMISTRY,4.09,g/dL,,,4.09,4.09,g/dL,,,,1751-7,SERUM,,,SCREENING,100,VISIT 1 (WEEK -2),2019-01-24,-15
CDISC-TEST,LB,CDISC-TEST-025,1106,1123,ALB,Albumin,BIOCHEMISTRY,4.38,g/dL,,,4.38,4.38,g/dL,,,,1751-7,SERUM,,,TREATMENT,200,VISIT 2 (WEEK 0),2019-02-08,1
CDISC-TEST,LB,CDISC-TEST-025,1107,1147,ALB,Albumin,BIOCHEMISTRY,4.83,g/dL,,,4.83,4.83,g/dL,,,,1751-7,SERUM,,,TREATMENT,2200,VISIT 22 (WEEK 20),2019-06-28,141
CDISC-TEST,LB,CDISC-TEST-025,1108,1136,ALB,Albumin,BIOCHEMISTRY,3.73,g/dL,,,3.73,3.73,g/dL,,,,1751-7,SERUM,,,FOLLOW-UP,2900,END OF TRIAL,2019-09-08,213
CDISC-TEST,LB,CDISC-TEST-025,1109,1110,ALT,Alanine Aminotransferase,BIOCHEMISTRY,40.53,U/L,,,40.53,40.53,U/L,,,,1742-6,SERUM,,,SCREENING,100,VISIT 1 (WEEK -2),2019-01-24,-15
CDISC-TEST,LB,CDISC-TEST-025,1110,1120,ALT,Alanine Aminotransferase,BIOCHEMISTRY,46.36,U/L,,,46.36,46.36,U/L,,,,1742-6,SERUM,,,TREATMENT,200,VISIT 2 (WEEK 0),2019-02-08,1
CDISC-TEST,LB,CDISC-TEST-025,1111,1144,ALT,Alanine Aminotransferase,BIOCHEMISTRY,-4.99,U/L,,,-4.99,-4.99,U/L,,,,1742-6,SERUM,,,TREATMENT,2200,VISIT 22 (WEEK 20),2019-06-28,141
CDISC-TEST,LB,CDISC-TEST-025,1112,1133,ALT,Alanine Aminotransferase,BIOCHEMISTRY,37.2,U/L,,,37.2,37.2,U/L,,,,1742-6,SERUM,,,FOLLOW-UP,2900,END OF TRIAL,2019-09-08,213
CDISC-TEST,LB,CDISC-TEST-025,1113,1106,CHOL,Cholesterol,LIPIDS,3.99,mmol/L,,,3.99,3.99,mmol/L,,,,2093-3,SERUM,,,SCREENING,100,VISIT 1 (WEEK -2),2019-01-24,-15
CDISC-TEST,LB,CDISC-TEST-025,1114,1116,CHOL,Cholesterol,LIPIDS,4.21,mmol/L,,,4.21,4.21,mmol/L,,,,2093-3,SERUM,,,TREATMENT,200,VISIT 2 (WEEK 0),2019-02-08,1
CDISC-TEST,LB,CDISC-TEST-025,1115,1140,CHOL,Cholesterol,LIPIDS,3.95,mmol/L,,,3.95,3.95,mmol/L,,,,2093-3,SERUM,,,TREATMENT,2200,VISIT 22 (WEEK 20),2019-06-28,141
CDISC-TEST,LB,CDISC-TEST-025,1116,1129,CHOL,Cholesterol,LIPIDS,2.68,mmol/L,,,2.68,2.68,mmol/L,,,,2093-3,SERUM,,,FOLLOW-UP,2900,END OF TRIAL,2019-09-08,213
CDISC-TEST,LB,CDISC-TEST-025,1117,1105,CREAT,Creatinine,BIOCHEMISTRY,94.91,umol/L,,,94.91,94.91,umol/L,,,,14682-9,SERUM,,,SCREENING,100,VISIT 1 (WEEK -2),2019-01-24,-15
CDISC-TEST,LB,CDISC-TEST-025,1118,1114,CREAT,Creatinine,BIOCHEMISTRY,38.42,umol/L,,,38.42,38.42,umol/L,,,,14682-9,SERUM,,,TREATMENT,200,VISIT 2 (WEEK 0),2019-02-08,1
CDISC-TEST,LB,CDISC-TEST-025,1119,1138,CREAT,Creatinine,BIOCHEMISTRY,107.01,umol/L,,,107.01,107.01,umol/L,,,,14682-9,SERUM,,,TREATMENT,2200,VISIT 22 (WEEK 20),2019-06-28,141
CDISC-TEST,LB,CDISC-TEST-025,1120,1127,CREAT,Creatinine,BIOCHEMISTRY,171.19,umol/L,,,171.19,171.19,umol/L,,,,14682-9,SERUM,,,FOLLOW-UP,2900,END OF TRIAL,2019-09-08,213
CDISC-TEST,LB,CDISC-TEST-025,1121,1115,HBA1CHGB,Hemoglobin A1C/Hemoglobin,GLUCOSE METABOLISM,71.65,mmol/mol,,,71.65,71.65,mmol/mol,,,,59261-8,BLOOD,,,TREATMENT,200,VISIT 2 (WEEK 0),2019-02-08,1
CDISC-TEST,LB,CDISC-TEST-025,1122,1125,HBA1CHGB,Hemoglobin A1C/Hemoglobin,GLUCOSE METABOLISM,69.6,mmol/mol,,,69.6,69.6,mmol/mol,,,,59261-8,BLOOD,,,TREATMENT,300,VISIT 3 (WEEK 1),2019-02-15,8
CDISC-TEST,LB,CDISC-TEST-025,1123,1126,HBA1CHGB,Hemoglobin A1C/Hemoglobin,GLUCOSE METABOLISM,81.09,mmol/mol,,,81.09,81.09,mmol/mol,,,,59261-8,BLOOD,,,TREATMENT,900,VISIT 9 (WEEK 7),2019-03-29,50
CDISC-TEST,LB,CDISC-TEST-025,1124,1124,HBA1CHGB,Hemoglobin A1C/Hemoglobin,GLUCOSE METABOLISM,53.98,mmol/mol,,,53.98,53.98,mmol/mol,,,,59261-8,BLOOD,,,TREATMENT,1400,VISIT 14 (WEEK 12),2019-05-03,85
CDISC-TEST,LB,CDISC-TEST-025,1125,1137,HBA1CHGB,Hemoglobin A1C/Hemoglobin,GLUCOSE METABOLISM,75.47,mmol/mol,,,75.47,75.47,mmol/mol,,,,59261-8,BLOOD,,,TREATMENT,1900,VISIT 19 (WEEK 17),2019-06-07,120
CDISC-TEST,LB,CDISC-TEST-025,1126,1148,HBA1CHGB,Hemoglobin A1C/Hemoglobin,GLUCOSE METABOLISM,66.92,mmol/mol,,,66.92,66.92,mmol/mol,,,,59261-8,BLOOD,,,TREATMENT,2000,VISIT 20 (WEEK 18),2019-06-14,127
CDISC-TEST,LB,CDISC-TEST-025,1127,1149,HBA1CHGB,Hemoglobin A1C/Hemoglobin,GLUCOSE METABOLISM,65.44,mmol/mol,,,65.44,65.44,mmol/mol,,,,59261-8,BLOOD,,,TREATMENT,2100,VISIT 21 (WEEK 19),2019-06-21,134
CDISC-TEST,LB,CDISC-TEST-025,1128,1139,HBA1CHGB,Hemoglobin A1C/Hemoglobin,GLUCOSE METABOLISM,90.18,mmol/mol,,,90.18,90.18,mmol/mol,,,,59261-8,BLOOD,,,TREATMENT,2200,VISIT 22 (WEEK 20),2019-06-28,141
CDISC-TEST,LB,CDISC-TEST-025,1129,1150,HBA1CHGB,Hemoglobin A1C/Hemoglobin,GLUCOSE METABOLISM,77.53,mmol/mol,,,77.53,77.53,mmol/mol,,,,59261-8,BLOOD,,,TREATMENT,2800,VISIT 28 (WEEK 26),2019-08-09,183
CDISC-TEST,LB,CDISC-TEST-025,1130,1128,HBA1CHGB,Hemoglobin A1C/Hemoglobin,GLUCOSE METABOLISM,38.42,mmol/mol,,,38.42,38.42,mmol/mol,,,,59261-8,BLOOD,,,FOLLOW-UP,2900,END OF TRIAL,2019-09-08,213
CDISC-TEST,LB,CDISC-TEST-025,1131,1112,HCT,Hematocrit,HAEMATOLOGY,40.08,%,,,40.08,40.08,%,,,,20570-8,BLOOD,,,SCREENING,100,VISIT 1 (WEEK -2),2019-01-24,-15
CDISC-TEST,LB,CDISC-TEST-025,1132,1122,HCT,Hematocrit,HAEMATOLOGY,39.66,%,,,39.66,39.66,%,,,,20570-8,BLOOD,,,TREATMENT,200,VISIT 2 (WEEK 0),2019-02-08,1
CDISC-TEST,LB,CDISC-TEST-025,1133,1146,HCT,Hematocrit,HAEMATOLOGY,40.17,%,,,40.17,40.17,%,,,,20570-8,BLOOD,,,TREATMENT,2200,VISIT 22 (WEEK 20),2019-06-28,141
CDISC-TEST,LB,CDISC-TEST-025,1134,1135,HCT,Hematocrit,HAEMATOLOGY,37.69,%,,,37.69,37.69,%,,,,20570-8,BLOOD,,,FOLLOW-UP,2900,END OF TRIAL,2019-09-08,213
CDISC-TEST,LB,CDISC-TEST-025,1135,1111,HDL,HDL Cholesterol,LIPIDS,1.16,mmol/L,,,1.16,1.16,mmol/L,,,,14646-4,SERUM,,,SCREENING,100,VISIT 1 (WEEK -2),2019-01-24,-15
CDISC-TEST,LB,CDISC-TEST-025,1136,1121,HDL,HDL Cholesterol,LIPIDS,0.92,mmol/L,,,0.92,0.9200000000000002,mmol/L,,,,14646-4,SERUM,,,TREATMENT,200,VISIT 2 (WEEK 0),2019-02-08,1
CDISC-TEST,LB,CDISC-TEST-025,1137,1145,HDL,HDL Cholesterol,LIPIDS,0.86,mmol/L,,,0.86,0.86,mmol/L,,,,14646-4,SERUM,,,TREATMENT,2200,VISIT 22 (WEEK 20),2019-06-28,141
CDISC-TEST,LB,CDISC-TEST-025,1138,1134,HDL,HDL Cholesterol,LIPIDS,1.37,mmol/L,,,1.37,1.37,mmol/L,,,,14646-4,SERUM,,,FOLLOW-UP,2900,END OF TRIAL,2019-09-08,213
CDISC-TEST,LB,CDISC-TEST-025,1139,1109,HGB,Hemoglobin,HAEMATOLOGY,7.11,mmol/L,,,7.11,7.11,mmol/L,,,,718-7,BLOOD,,,SCREENING,100,VISIT 1 (WEEK -2),2019-01-24,-15
CDISC-TEST,LB,CDISC-TEST-025,1140,1119,HGB,Hemoglobin,HAEMATOLOGY,8.15,mmol/L,,,8.15,8.15,mmol/L,,,,718-7,BLOOD,,,TREATMENT,200,VISIT 2 (WEEK 0),2019-02-08,1
CDISC-TEST,LB,CDISC-TEST-025,1141,1143,HGB,Hemoglobin,HAEMATOLOGY,6.22,mmol/L,,,6.22,6.22,mmol/L,,,,718-7,BLOOD,,,TREATMENT,2200,VISIT 22 (WEEK 20),2019-06-28,141
CDISC-TEST,LB,CDISC-TEST-025,1142,1132,HGB,Hemoglobin,HAEMATOLOGY,8.16,mmol/L,,,8.16,8.16,mmol/L,,,,718-7,BLOOD,,,FOLLOW-UP,2900,END OF TRIAL,2019-09-08,213
CDISC-TEST,LB,CDISC-TEST-025,1143,1108,LDL,LDL Cholesterol,LIPIDS,2.82,mmol/L,,,2.82,2.82,mmol/L,,,,22748-8,SERUM,,,SCREENING,100,VISIT 1 (WEEK -2),2019-01-24,-15
CDISC-TEST,LB,CDISC-TEST-025,1144,1118,LDL,LDL Cholesterol,LIPIDS,0.53,mmol/L,,,0.53,0.53,mmol/L,,,,22748-8,SERUM,,,TREATMENT,200,VISIT 2 (WEEK 0),2019-02-08,1
CDISC-TEST,LB,CDISC-TEST-025,1145,1142,LDL,LDL Cholesterol,LIPIDS,3.21,mmol/L,,,3.21,3.21,mmol/L,,,,22748-8,SERUM,,,TREATMENT,2200,VISIT 22 (WEEK 20),2019-06-28,141
CDISC-TEST,LB,CDISC-TEST-025,1146,1131,LDL,LDL Cholesterol,LIPIDS,0.76,mmol/L,,,0.76,0.76,mmol/L,,,,22748-8,SERUM,,,FOLLOW-UP,2900,END OF TRIAL,2019-09-08,213
CDISC-TEST,LB,CDISC-TEST-025,1147,1107,PLAT,Platelets,HAEMATOLOGY,142.94,10^9/L,,,142.94,142.94,10^9/L,,,,26515-7,BLOOD,,,SCREENING,100,VISIT 1 (WEEK -2),2019-01-24,-15
CDISC-TEST,LB,CDISC-TEST-025,1148,1117,PLAT,Platelets,HAEMATOLOGY,159.93,10^9/L,,,159.93,159.93,10^9/L,,,,26515-7,BLOOD,,,TREATMENT,200,VISIT 2 (WEEK 0),2019-02-08,1
CDISC-TEST,LB,CDISC-TEST-025,1149,1141,PLAT,Platelets,HAEMATOLOGY,201.76,10^9/L,,,201.76,201.76,10^9/L,,,,26515-7,BLOOD,,,TREATMENT,2200,VISIT 22 (WEEK 20),2019-06-28,141
CDISC-TEST,LB,CDISC-TEST-025,1150,1130,PLAT,Platelets,HAEMATOLOGY,215.63,10^9/L,,,215.63,215.63,10^9/L,,,,26515-7,BLOOD,,,FOLLOW-UP,2900,END OF TRIAL,2019-09-08,213
CDISC-TEST,LB,CDISC-TEST-026,1151,1170,ALB,Albumin,BIOCHEMISTRY,3.97,g/dL,,,3.97,3.97,g/dL,,,,1751-7,SERUM,,,SCREENING,100,VISIT 1 (WEEK -2),2019-01-09,-15
CDISC-TEST,LB,CDISC-TEST-026,1152,1160,ALB,Albumin,BIOCHEMISTRY,4.39,g/dL,,,4.39,4.39,g/dL,,,,1751-7,SERUM,,,TREATMENT,200,VISIT 2 (WEEK 0),2019-01-24,1
CDISC-TEST,LB,CDISC-TEST-026,1153,1181,ALB,Albumin,BIOCHEMISTRY,4.24,g/dL,,,4.24,4.24,g/dL,,,,1751-7,SERUM,,,TREATMENT,2200,VISIT 22 (WEEK 20),2019-06-13,141
CDISC-TEST,LB,CDISC-TEST-026,1154,1196,ALB,Albumin,BIOCHEMISTRY,3.95,g/dL,,,3.95,3.95,g/dL,,,,1751-7,SERUM,,,FOLLOW-UP,2900,END OF TRIAL,2019-08-24,213
CDISC-TEST,LB,CDISC-TEST-026,1155,1167,ALT,Alanine Aminotransferase,BIOCHEMISTRY,27.92,U/L,,,27.92,27.92,U/L,,,,1742-6,SERUM,,,SCREENING,100,VISIT 1 (WEEK -2),2019-01-09,-15
CDISC-TEST,LB,CDISC-TEST-026,1156,1157,ALT,Alanine Aminotransferase,BIOCHEMISTRY,21.64,U/L,,,21.64,21.64,U/L,,,,1742-6,SERUM,,,TREATMENT,200,VISIT 2 (WEEK 0),2019-01-24,1
CDISC-TEST,LB,CDISC-TEST-026,1157,1178,ALT,Alanine Aminotransferase,BIOCHEMISTRY,13.53,U/L,,,13.53,13.53,U/L,,,,1742-6,SERUM,,,TREATMENT,2200,VISIT 22 (WEEK 20),2019-06-13,141
CDISC-TEST,LB,CDISC-TEST-026,1158,1193,ALT,Alanine Aminotransferase,BIOCHEMISTRY,15.69,U/L,,,15.69,15.69,U/L,,,,1742-6,SERUM,,,FOLLOW-UP,2900,END OF TRIAL,2019-08-24,213
CDISC-TEST,LB,CDISC-TEST-026,1159,1163,CHOL,Cholesterol,LIPIDS,5.19,mmol/L,,,5.19,5.19,mmol/L,,,,2093-3,SERUM,,,SCREENING,100,VISIT 1 (WEEK -2),2019-01-09,-15
CDISC-TEST,LB,CDISC-TEST-026,1160,1153,CHOL,Cholesterol,LIPIDS,6.32,mmol/L,,,6.32,6.32,mmol/L,,,,2093-3,SERUM,,,TREATMENT,200,VISIT 2 (WEEK 0),2019-01-24,1
CDISC-TEST,LB,CDISC-TEST-026,1161,1174,CHOL,Cholesterol,LIPIDS,5.47,mmol/L,,,5.47,5.47,mmol/L,,,,2093-3,SERUM,,,TREATMENT,2200,VISIT 22 (WEEK 20),2019-06-13,141
CDISC-TEST,LB,CDISC-TEST-026,1162,1189,CHOL,Cholesterol,LIPIDS,6.42,mmol/L,,,6.42,6.42,mmol/L,,,,2093-3,SERUM,,,FOLLOW-UP,2900,END OF TRIAL,2019-08-24,213
CDISC-TEST,LB,CDISC-TEST-026,1163,1162,CREAT,Creatinine,BIOCHEMISTRY,26.27,umol/L,,,26.27,26.27,umol/L,,,,14682-9,SERUM,,,SCREENING,100,VISIT 1 (WEEK -2),2019-01-09,-15
CDISC-TEST,LB,CDISC-TEST-026,1164,1151,CREAT,Creatinine,BIOCHEMISTRY,85.37,umol/L,,,85.37,85.37,umol/L,,,,14682-9,SERUM,,,TREATMENT,200,VISIT 2 (WEEK 0),2019-01-24,1
CDISC-TEST,LB,CDISC-TEST-026,1165,1172,CREAT,Creatinine,BIOCHEMISTRY,244.61,umol/L,,,244.61,244.61,umol/L,,,,14682-9,SERUM,,,TREATMENT,2200,VISIT 22 (WEEK 20),2019-06-13,141
CDISC-TEST,LB,CDISC-TEST-026,1166,1187,CREAT,Creatinine,BIOCHEMISTRY,184.89,umol/L,,,184.89,184.89,umol/L,,,,14682-9,SERUM,,,FOLLOW-UP,2900,END OF TRIAL,2019-08-24,213
CDISC-TEST,LB,CDISC-TEST-026,1167,1152,HBA1CHGB,Hemoglobin A1C/Hemoglobin,GLUCOSE METABOLISM,72,mmol/mol,,,72,72,mmol/mol,,,,59261-8,BLOOD,,,TREATMENT,200,VISIT 2 (WEEK 0),2019-01-24,1
CDISC-TEST,LB,CDISC-TEST-026,1168,1161,HBA1CHGB,Hemoglobin A1C/Hemoglobin,GLUCOSE METABOLISM,85.09,mmol/mol,,,85.09,85.09,mmol/mol,,,,59261-8,BLOOD,,,TREATMENT,300,VISIT 3 (WEEK 1),2019-01-31,8
CDISC-TEST,LB,CDISC-TEST-026,1169,1171,HBA1CHGB,Hemoglobin A1C/Hemoglobin,GLUCOSE METABOLISM,67.84,mmol/mol,,,67.84,67.84,mmol/mol,,,,59261-8,BLOOD,,,TREATMENT,900,VISIT 9 (WEEK 7),2019-03-14,50
CDISC-TEST,LB,CDISC-TEST-026,1170,1182,HBA1CHGB,Hemoglobin A1C/Hemoglobin,GLUCOSE METABOLISM,39.99,mmol/mol,,,39.99,39.99,mmol/mol,,,,59261-8,BLOOD,,,TREATMENT,1400,VISIT 14 (WEEK 12),2019-04-18,85
CDISC-TEST,LB,CDISC-TEST-026,1171,1183,HBA1CHGB,Hemoglobin A1C/Hemoglobin,GLUCOSE METABOLISM,51.88,mmol/mol,,,51.88,51.88,mmol/mol,,,,59261-8,BLOOD,,,TREATMENT,1900,VISIT 19 (WEEK 17),2019-05-23,120
CDISC-TEST,LB,CDISC-TEST-026,1172,1184,HBA1CHGB,Hemoglobin A1C/Hemoglobin,GLUCOSE METABOLISM,59.6,mmol/mol,,,59.6,59.6,mmol/mol,,,,59261-8,BLOOD,,,TREATMENT,2000,VISIT 20 (WEEK 18),2019-05-30,127
CDISC-TEST,LB,CDISC-TEST-026,1173,1186,HBA1CHGB,Hemoglobin A1C/Hemoglobin,GLUCOSE METABOLISM,63.64,mmol/mol,,,63.64,63.64,mmol/mol,,,,59261-8,BLOOD,,,TREATMENT,2100,VISIT 21 (WEEK 19),2019-06-06,134
CDISC-TEST,LB,CDISC-TEST-026,1174,1173,HBA1CHGB,Hemoglobin A1C/Hemoglobin,GLUCOSE METABOLISM,74.42,mmol/mol,,,74.42,74.42,mmol/mol,,,,59261-8,BLOOD,,,TREATMENT,2200,VISIT 22 (WEEK 20),2019-06-13,141
CDISC-TEST,LB,CDISC-TEST-026,1175,1185,HBA1CHGB,Hemoglobin A1C/Hemoglobin,GLUCOSE METABOLISM,59.21,mmol/mol,,,59.21,59.21,mmol/mol,,,,59261-8,BLOOD,,,TREATMENT,2800,VISIT 28 (WEEK 26),2019-07-25,183
CDISC-TEST,LB,CDISC-TEST-026,1176,1188,HBA1CHGB,Hemoglobin A1C/Hemoglobin,GLUCOSE METABOLISM,52.7,mmol/mol,,,52.7,52.7,mmol/mol,,,,59261-8,BLOOD,,,FOLLOW-UP,2900,END OF TRIAL,2019-08-24,213
CDISC-TEST,LB,CDISC-TEST-026,1177,1169,HCT,Hematocrit,HAEMATOLOGY,45.52,%,,,45.52,45.52,%,,,,20570-8,BLOOD,,,SCREENING,100,VISIT 1 (WEEK -2),2019-01-09,-15
CDISC-TEST,LB,CDISC-TEST-026,1178,1159,HCT,Hematocrit,HAEMATOLOGY,42.45,%,,,42.45,42.45,%,,,,20570-8,BLOOD,,,TREATMENT,200,VISIT 2 (WEEK 0),2019-01-24,1
CDISC-TEST,LB,CDISC-TEST-026,1179,1180,HCT,Hematocrit,HAEMATOLOGY,42.74,%,,,42.74,42.74,%,,,,20570-8,BLOOD,,,TREATMENT,2200,VISIT 22 (WEEK 20),2019-06-13,141
CDISC-TEST,LB,CDISC-TEST-026,1180,1195,HCT,Hematocrit,HAEMATOLOGY,44.86,%,,,44.86,44.86,%,,,,20570-8,BLOOD,,,FOLLOW-UP,2900,END OF TRIAL,2019-08-24,213
CDISC-TEST,LB,CDISC-TEST-026,1181,1168,HDL,HDL Cholesterol,LIPIDS,0.42,mmol/L,,,0.42,0.42000000000000004,mmol/L,,,,14646-4,SERUM,,,SCREENING,100,VISIT 1 (WEEK -2),2019-01-09,-15
CDISC-TEST,LB,CDISC-TEST-026,1182,1158,HDL,HDL Cholesterol,LIPIDS,1.09,mmol/L,,,1.09,1.09,mmol/L,,,,14646-4,SERUM,,,TREATMENT,200,VISIT 2 (WEEK 0),2019-01-24,1
CDISC-TEST,LB,CDISC-TEST-026,1183,1179,HDL,HDL Cholesterol,LIPIDS,0.92,mmol/L,,,0.92,0.9200000000000002,mmol/L,,,,14646-4,SERUM,,,TREATMENT,2200,VISIT 22 (WEEK 20),2019-06-13,141
CDISC-TEST,LB,CDISC-TEST-026,1184,1194,HDL,HDL Cholesterol,LIPIDS,1.8,mmol/L,,,1.8,1.8,mmol/L,,,,14646-4,SERUM,,,FOLLOW-UP,2900,END OF TRIAL,2019-08-24,213
CDISC-TEST,LB,CDISC-TEST-026,1185,1166,HGB,Hemoglobin,HAEMATOLOGY,7.45,mmol/L,,,7.45,7.45,mmol/L,,,,718-7,BLOOD,,,SCREENING,100,VISIT 1 (WEEK -2),2019-01-09,-15
CDISC-TEST,LB,CDISC-TEST-026,1186,1156,HGB,Hemoglobin,HAEMATOLOGY,7.95,mmol/L,,,7.95,7.95,mmol/L,,,,718-7,BLOOD,,,TREATMENT,200,VISIT 2 (WEEK 0),2019-01-24,1
CDISC-TEST,LB,CDISC-TEST-026,1187,1177,HGB,Hemoglobin,HAEMATOLOGY,9.28,mmol/L,,,9.28,9.28,mmol/L,,,,718-7,BLOOD,,,TREATMENT,2200,VISIT 22 (WEEK 20),2019-06-13,141
CDISC-TEST,LB,CDISC-TEST-026,1188,1192,HGB,Hemoglobin,HAEMATOLOGY,9.59,mmol/L,,,9.59,9.59,mmol/L,,,,718-7,BLOOD,,,FOLLOW-UP,2900,END OF TRIAL,2019-08-24,213
CDISC-TEST,LB,CDISC-TEST-026,1189,1165,LDL,LDL Cholesterol,LIPIDS,3.17,mmol/L,,,3.17,3.17,mmol/L,,,,22748-8,SERUM,,,SCREENING,100,VISIT 1 (WEEK -2),2019-01-09,-15
CDISC-TEST,LB,CDISC-TEST-026,1190,1155,LDL,LDL Cholesterol,LIPIDS,4.11,mmol/L,,,4.11,4.11,mmol/L,,,,22748-8,SERUM,,,TREATMENT,200,VISIT 2 (WEEK 0),2019-01-24,1
