STUDYID,DOMAIN,USUBJID,DSSEQ,DSTERM,DSDECOD,DSCAT,DSSCAT,EPOCH,DSDY,DSSTDY,DSENDY
CDISCCORE01,DS,015246-300-0004-00002,5,ADVERSE EVENT,LAST CONTACT,DISPOSITION EVENT,,TREATMENT,1,44,65
CDISCCORE01,DS,015246-300-0004-00002,3,RANDOMIZED,RANDOMIZED,PROTOCOL MILESTONE,,,44,,
CDISCCORE01,DS,015246-300-0004-00002,3,RANDOMIZED,RANDOMIZED,PROTOCOL MILESTONE,,,,44,
CDISCCORE01,DS,015246-300-0004-00002,3,RANDOMIZED,RANDOMIZED,PROTOCOL MILESTONE,,,,,65
CDISCCORE01,DS,015246-300-0004-00002,3,RANDOMIZED,RANDOMIZED,PROTOCOL MILESTONE,,,,1,
CDISCCORE01,DS,015246-300-0004-00002,5,ADVERSE EVENT,LAST CONTACT,DISPOSITION EVENT,,TREATMENT,22,,
