{
    "rule": {
        "Authorities": [
            {
                "Organization": "CDISC",
                "Standards": [
                    {
                        "Name": "TIG",
                        "References": [
                            {
                                "Citations": [
                                    {
                                        "Document": "SDTM v2.1",
                                        "Item": "--SEQ",
                                        "Section": "3.1.4 Identifiers for All Classes",
                                        "Cited_Guidance": "A number used to uniquely identify records for a subject within a domain. The Trial Summary domain does not contain subject data, and TSSEQ is a sequence number to ensure uniqueness within the dataset."
                                    }
                                ],
                                "Origin": "TIG Conformance Rules",
                                "Version": "1.0",
                                "Rule_Identifier": {
                                    "Id": "TIG0310",
                                    "Version": "1"
                                }
                            }
                        ],
                        "Substandard": "SDTM",
                        "Version": "1.0"
                    }
                ]
            }
        ],
        "Check": {
            "all": [
                {
                    "name": "SPTOBID",
                    "operator": "non_empty"
                },
                {
                    "name": "--SEQ",
                    "operator": "exists"
                },
                {
                    "name": "--SEQ",
                    "operator": "is_not_unique_set",
                    "value": [
                        "DOMAIN",
                        "SPTOBID"
                    ]
                }
            ]
        },
        "Core": {
            "Id": "CORE-000752",
            "Status": "Published",
            "Version": "1"
        },
        "Description": "Part C - Raise an error when --SEQ is not a unique number per one of the following identifier variables, per domain; SPTOBID.",
        "Executability": "Fully Executable",
        "Outcome": {
            "Message": "--SEQ is not a unique number per SPTOBID per domain.",
            "Output_Variables": [
                "SPTOBID"
            ]
        },
        "Scope": {
            "Classes": {
                "Include": [
                    "EVENTS"
                ]
            },
            "Domains": {
                "Include": [
                    "EM"
                ]
            },
            "Use_Case": "INDH"
        },
        "Sensitivity": "Record",
        "Rule_Type": "Record Data"
    },
    "datasets": [
        {
            "filename": "ae.xpt",
            "label": "Adverse Events",
            "domain": "AE",
            "variables": [
                {
                    "name": "STUDYID",
                    "label": "Study Identifier",
                    "type": "Char",
                    "length": 50
                },
                {
                    "name": "DOMAIN",
                    "label": "Domain Abbreviation",
                    "type": "Char",
                    "length": 50
                },
                {
                    "name": "POOLID",
                    "label": "Pool Identifier",
                    "type": "Char",
                    "length": 20
                },
                {
                    "name": "AESEQ",
                    "label": "Sequence Number",
                    "type": "Num",
                    "length": 8
                },
                {
                    "name": "AETERM",
                    "label": "Reported Term for the Adverse Event",
                    "type": "Char",
                    "length": 50
                },
                {
                    "name": "AEMODIFY",
                    "label": "Modified Reported Term",
                    "type": "Char",
                    "length": 50
                },
                {
                    "name": "AEDECOD",
                    "label": "Dictionary-Derived Term",
                    "type": "Char",
                    "length": 50
                },
                {
                    "name": "AEBODSYS",
                    "label": "Body System or Organ Class",
                    "type": "Char",
                    "length": 50
                },
                {
                    "name": "AESEV",
                    "label": "Severity/Intensity",
                    "type": "Char",
                    "length": 50
                },
                {
                    "name": "AESER",
                    "label": "Serious Event",
                    "type": "Char",
                    "length": 50
                },
                {
                    "name": "AEACN",
                    "label": "Action Taken with Study Treatment",
                    "type": "Char",
                    "length": 50
                },
                {
                    "name": "AEREL",
                    "label": "Causality",
                    "type": "Char",
                    "length": 50
                },
                {
                    "name": "AEOUT",
                    "label": "Outcome of Adverse Event",
                    "type": "Char",
                    "length": 50
                },
                {
                    "name": "AESCONG",
                    "label": "Congenital Anomaly or Birth Defect",
                    "type": "Char",
                    "length": 50
                },
                {
                    "name": "AESDISAB",
                    "label": "Persist or Signif Disability/Incapacity",
                    "type": "Char",
                    "length": 50
                },
                {
                    "name": "AESDTH",
                    "label": "Results in Death",
                    "type": "Char",
                    "length": 50
                },
                {
                    "name": "AESHOSP",
                    "label": "Requires or Prolongs Hospitalization",
                    "type": "Char",
                    "length": 50
                },
                {
                    "name": "AESLIFE",
                    "label": "Is Life Threatening",
                    "type": "Char",
                    "length": 50
                },
                {
                    "name": "EPOCH",
                    "label": "Epoch",
                    "type": "Char",
                    "length": 50
                },
                {
                    "name": "AESTDTC",
                    "label": "Start Date/Time of Adverse Event",
                    "type": "Char",
                    "length": 50
                },
                {
                    "name": "AEENDTC",
                    "label": "End Date/Time of Adverse Event",
                    "type": "Char",
                    "length": 50
                },
                {
                    "name": "AESTDY",
                    "label": "Study Day of Start of Adverse Event",
                    "type": "Num",
                    "length": 8
                },
                {
                    "name": "AEENDY",
                    "label": "Study Day of End of Adverse Event",
                    "type": "Num",
                    "length": 8
                },
                {
                    "name": "AEENRF",
                    "label": "End Relative to Reference Period",
                    "type": "Char",
                    "length": 50
                }
            ],
            "records": {
                "STUDYID": [
                    "CDISCPILOT01",
                    "CDISCPILOT01"
                ],
                "DOMAIN": [
                    "AE",
                    "AE"
                ],
                "POOLID": [
                    "CDISC001",
                    "CDISC001"
                ],
                "AESEQ": [
                    1,
                    1
                ],
                "AETERM": [
                    "POUNDING HEADACHE",
                    "POUNDING HEADACHE"
                ],
                "AEMODIFY": [
                    "HEADACHE",
                    "HEADACHE"
                ],
                "AEDECOD": [
                    "Headache",
                    "Headache"
                ],
                "AEBODSYS": [
                    "Nervous system disorders",
                    "Nervous system disorders"
                ],
                "AESEV": [
                    "SEVERE",
                    "SEVERE"
                ],
                "AESER": [
                    "N",
                    "N"
                ],
                "AEACN": [
                    "NOT APPLICABLE",
                    "NOT APPLICABLE"
                ],
                "AEREL": [
                    "DEFINITELY NOT RELATED",
                    "DEFINITELY NOT RELATED"
                ],
                "AEOUT": [
                    "RECOVERED/RESOLVED",
                    "RECOVERED/RESOLVED"
                ],
                "AESCONG": [
                    "",
                    ""
                ],
                "AESDISAB": [
                    "",
                    ""
                ],
                "AESDTH": [
                    "",
                    ""
                ],
                "AESHOSP": [
                    "CDISCPILOT01",
                    "CDISCPILOT01"
                ],
                "AESLIFE": [
                    "",
                    ""
                ],
                "EPOCH": [
                    "SCREENING",
                    "SCREENING"
                ],
                "AESTDTC": [
                    "2022-03-19",
                    "2022-03-20"
                ],
                "AEENDTC": [
                    "2022-03-19",
                    "2022-03-20"
                ],
                "AESTDY": [
                    -2,
                    0
                ],
                "AEENDY": [
                    -2,
                    0
                ],
                "AEENRF": [
                    "",
                    ""
                ]
            }
        },
        {
            "filename": "em.xpt",
            "label": "Tobacco Product Events and Malfunctions",
            "domain": "EM",
            "variables": [
                {
                    "name": "STUDYID",
                    "label": "Study Identifier",
                    "type": "Char",
                    "length": 12
                },
                {
                    "name": "DOMAIN",
                    "label": "Domain Abbreviation",
                    "type": "Char",
                    "length": 2
                },
                {
                    "name": "USUBJID",
                    "label": "Unique Subject Identifier",
                    "type": "Char",
                    "length": 8
                },
                {
                    "name": "SPTOBID",
                    "label": "Applicant-Defined Tobacco Product ID",
                    "type": "Char",
                    "length": 40
                },
                {
                    "name": "EMTERM",
                    "label": "Reported Term for Device Event",
                    "type": "Char",
                    "length": 200
                },
                {
                    "name": "EMDECOD",
                    "label": "Device Events Dictionary-Derived Term",
                    "type": "Char",
                    "length": 200
                },
                {
                    "name": "EMACNDEV",
                    "label": "Action Taken with Device",
                    "type": "Char",
                    "length": 200
                },
                {
                    "name": "EMPATT",
                    "label": "Pattern of Device Event",
                    "type": "Char",
                    "length": 200
                },
                {
                    "name": "EMSTDTC",
                    "label": "Start Date/Time of Device Event",
                    "type": "Char",
                    "length": 200
                }
            ],
            "records": {
                "STUDYID": [
                    "TOB07",
                    "TOB07",
                    "TOB07"
                ],
                "DOMAIN": [
                    "EM",
                    "EM",
                    "EM"
                ],
                "USUBJID": [
                    "CDISC001",
                    "CDISC001",
                    "CDISC001"
                ],
                "SPTOBID": [
                    "VAPE-Z01",
                    "VAPE-Z01",
                    "VAPE-Z01"
                ],
                "EMTERM": [
                    "Broken Heater",
                    "Won't charge",
                    "Battery Malfunction"
                ],
                "EMDECOD": [
                    "Mechanical Problem",
                    "Charging Problem",
                    "Battery Problem"
                ],
                "EMACNDEV": [
                    "DEVICE REPLACED",
                    "BATTERY REPLACED",
                    "BATTERY REPLACED"
                ],
                "EMPATT": [
                    "SINGLE",
                    "SINGLE",
                    "INTERMITTENT"
                ],
                "EMSTDTC": [
                    "2009-12-28",
                    "2009-12-29",
                    "2009-12-30"
                ]
            }
        },
        {
            "filename": "du.xpt",
            "label": "Device-in-Use",
            "domain": "DU",
            "variables": [
                {
                    "name": "STUDYID",
                    "label": "Study Identifier",
                    "type": "Char",
                    "length": 50
                },
                {
                    "name": "DOMAIN",
                    "label": "Domain Abbreviation",
                    "type": "Char",
                    "length": 50
                },
                {
                    "name": "USUBJID",
                    "label": "Unique Subject Identifier",
                    "type": "Char",
                    "length": 20
                },
                {
                    "name": "SPDEVID",
                    "label": "Applicant Device Identifier",
                    "type": "Char",
                    "length": 8
                },
                {
                    "name": "DUSEQ",
                    "label": "Sequence Number",
                    "type": "Num",
                    "length": 50
                },
                {
                    "name": "DUTESTCD",
                    "label": "Device-In-Use Test Short Name",
                    "type": "Char",
                    "length": 50
                },
                {
                    "name": "DUTEST",
                    "label": "Device-In-Use Test Name",
                    "type": "Char",
                    "length": 50
                },
                {
                    "name": "DUORRES",
                    "label": "Result or Finding in Original Units",
                    "type": "Char",
                    "length": 50
                },
                {
                    "name": "DUORRESU",
                    "label": "Original Units",
                    "type": "Char",
                    "length": 50
                },
                {
                    "name": "DUSTRESC",
                    "label": "Result or Finding in Standard Format",
                    "type": "Char",
                    "length": 50
                },
                {
                    "name": "DUSTRESN",
                    "label": "Numeric Result/Finding in Standard Units",
                    "type": "Num",
                    "length": 50
                },
                {
                    "name": "DUSTRESU",
                    "label": "Standard Units",
                    "type": "Char",
                    "length": 50
                }
            ],
            "records": {
                "STUDYID": [
                    "TOB07",
                    "TOB07",
                    "TOB07",
                    "TOB07",
                    "TOB07",
                    "TOB07",
                    "TOB07"
                ],
                "DOMAIN": [
                    "DU",
                    "DU",
                    "DU",
                    "DU",
                    "DU",
                    "DU",
                    "DU"
                ],
                "USUBJID": [
                    "",
                    "",
                    "",
                    "",
                    "",
                    "",
                    ""
                ],
                "SPDEVID": [
                    "PUFFMASTER2K",
                    "PUFFMASTER2K",
                    "PUFFMASTER2K",
                    "PUFFMASTER2K",
                    "PUFFMASTER2K",
                    "PUFFMASTER2K",
                    "PUFFMASTER2K"
                ],
                "DUSEQ": [
                    1,
                    1,
                    1,
                    1,
                    1,
                    1,
                    1
                ],
                "DUTESTCD": [
                    "PUFFPROF",
                    "PUFFDUR",
                    "PUFFINT",
                    "PUFFBLCK",
                    "PUFFNUM",
                    "PUFFVOL",
                    "PUFFRNG"
                ],
                "DUTEST": [
                    "Puff Profile",
                    "Puff Duration",
                    "Puff Interval",
                    "Puff Block",
                    "Number of Puffs",
                    "Puff Volume",
                    "Puff Range"
                ],
                "DUORRES": [
                    "SQUARE",
                    "1.25",
                    "3",
                    "25",
                    "200",
                    "10",
                    "100-200"
                ],
                "DUORRESU": [
                    "",
                    "sec",
                    "PUFF/min",
                    "%",
                    "PUFF",
                    "mL",
                    ""
                ],
                "DUSTRESC": [
                    "SQUARE",
                    "1.25",
                    "3",
                    "25",
                    "200",
                    "10",
                    "100-200"
                ],
                "DUSTRESN": [
                    null,
                    1.25,
                    3,
                    25,
                    200,
                    10,
                    null
                ],
                "DUSTRESU": [
                    "",
                    "sec",
                    "PUFF/min",
                    "%",
                    "PUFF",
                    "mL",
                    ""
                ]
            }
        }
    ],
    "standard": {
        "product": "tig",
        "version": "1-0",
        "substandard": "sdtm"
    },
    "codelists": []
}