STUDYID,DOMAIN,USUBJID,LBSEQ,LBTESTCD,LBTEST,LBORRES,LBORRESU,LBSTRESC,LBSTRESN,LBSTRESU,LBORNRLO,LBORNRHI
123101,LB,001,1,ALB,Albumin,NEGATIVE,g/L,3.0,3.0,g/L,29.89,29.9
123101,LB,001,2,ALP,Alkaline Phosphatase,POSITIVE,IU/L,398,398,IU/L,1.6,1.7
123101,LB,002,1,ALB,Albumin,NEGATIVE,g/L,3.0,3.0,g/L,+2,+1
123101,LB,002,2,ALP,Alkaline Phosphatase,POSITIVE,IU/L,398,398,IU/L,NEGATIVE,POSITIVE
123101,LB,003,1,ALB,Albumin,NEGATIVE,g/L,3.0,3.0,g/L,2-4,1-2
123101,LB,003,2,ALP,Alkaline Phosphatase,POSITIVE,IU/L,398,398,IU/L,,5
123102,LB,003,2,ALP,Alkaline Phosphatase,POSITIVE,IU/L,398,398,IU/L,<6,>2
