{
    "rule": {
        "Authorities": [
            {
                "Organization": "CDISC",
                "Standards": [
                    {
                        "Name": "SDTMIG",
                        "References": [
                            {
                                "Citations": [
                                    {
                                        "Document": "IG v3.2",
                                        "Item": "Specification",
                                        "Section": "5",
                                        "Cited_Guidance": "Null for screen failures or unassigned subjects."
                                    }
                                ],
                                "Origin": "SDTM and SDTMIG Conformance Rules",
                                "Version": "2.0",
                                "Rule_Identifier": {
                                    "Id": "CG0145",
                                    "Version": "1"
                                }
                            }
                        ],
                        "Version": "3.2"
                    }
                ]
            }
        ],
        "Check": {
            "all": [
                {
                    "name": "ACTARM",
                    "operator": "is_contained_by",
                    "value": [
                        "Screen Failure",
                        "Not Assigned",
                        "Not Treated",
                        "SCREEN FAILURE",
                        "NOT ASSIGNED",
                        "NOT TREATED"
                    ]
                },
                {
                    "name": "RFSTDTC",
                    "operator": "non_empty"
                }
            ]
        },
        "Core": {
            "Id": "CORE-000379",
            "Status": "Published",
            "Version": "1"
        },
        "Description": "Raise an error when RFSTDTC is not null, but ACTARM is either Screen Failure, Not Assigned, or Not Treated",
        "Executability": "Partially Executable",
        "Outcome": {
            "Message": "RFSTDTC must be null when ACTARM in (Screen failure, Not Assigned, Not Treated)."
        },
        "Scope": {
            "Classes": {
                "Include": [
                    "SPECIAL PURPOSE"
                ]
            },
            "Domains": {
                "Include": [
                    "DM"
                ]
            }
        },
        "Sensitivity": "Record",
        "Rule_Type": "Record Data"
    },
    "datasets": [
        {
            "filename": "dm.xpt",
            "label": "Demographics",
            "domain": "DM",
            "variables": [
                {
                    "name": "STUDYID",
                    "label": "Study Identifier",
                    "type": "Char",
                    "length": 12
                },
                {
                    "name": "DOMAIN",
                    "label": "Domain Abbreviation",
                    "type": "Char",
                    "length": 2
                },
                {
                    "name": "USUBJID",
                    "label": "Unique Subject Identifier",
                    "type": "Char",
                    "length": 20
                },
                {
                    "name": "SUBJID",
                    "label": "Subject Identifier for the Study",
                    "type": "Char",
                    "length": 12
                },
                {
                    "name": "RFSTDTC",
                    "label": "Subject Reference Start Date/Time",
                    "type": "Char",
                    "length": 10
                },
                {
                    "name": "RFENDTC",
                    "label": "Subject Reference End Date/Time",
                    "type": "Char",
                    "length": 10
                },
                {
                    "name": "RFXSTDTC",
                    "label": "Date/Time of First Study Treatment",
                    "type": "Char",
                    "length": 10
                },
                {
                    "name": "RFXENDTC",
                    "label": "Date/Time of Last Study Treatment",
                    "type": "Char",
                    "length": 10
                },
                {
                    "name": "RFICDTC",
                    "label": "Date/Time of Informed Consent",
                    "type": "Char",
                    "length": 10
                },
                {
                    "name": "RFPENDTC",
                    "label": "Date/Time of End of Participation",
                    "type": "Char",
                    "length": 10
                },
                {
                    "name": "DTHDTC",
                    "label": "Date/Time of Death",
                    "type": "Char",
                    "length": 10
                },
                {
                    "name": "DTHFL",
                    "label": "Subject Death Flag",
                    "type": "Char",
                    "length": 1
                },
                {
                    "name": "SITEID",
                    "label": "Study Site Identifier",
                    "type": "Char",
                    "length": 3
                },
                {
                    "name": "BRTHDTC",
                    "label": "Date/Time of Birth",
                    "type": "Char",
                    "length": 10
                },
                {
                    "name": "AGE",
                    "label": "Age",
                    "type": "Num",
                    "length": 8
                },
                {
                    "name": "AGETXT",
                    "label": "Age Text",
                    "type": "Char",
                    "length": 5
                },
                {
                    "name": "AGEU",
                    "label": "Age Units",
                    "type": "Char",
                    "length": 5
                },
                {
                    "name": "SEX",
                    "label": "Sex",
                    "type": "Char",
                    "length": 1
                },
                {
                    "name": "RACE",
                    "label": "Race",
                    "type": "Char",
                    "length": 41
                },
                {
                    "name": "ETHNIC",
                    "label": "Ethnicity",
                    "type": "Char",
                    "length": 22
                },
                {
                    "name": "ARMCD",
                    "label": "Planned Arm Code",
                    "type": "Char",
                    "length": 8
                },
                {
                    "name": "ARM",
                    "label": "Description of Planned Arm",
                    "type": "Char",
                    "length": 28
                },
                {
                    "name": "ACTARMCD",
                    "label": "Actual Arm Code",
                    "type": "Char",
                    "length": 8
                },
                {
                    "name": "ACTARM",
                    "label": "Description of Actual Arm",
                    "type": "Char",
                    "length": 28
                }
            ],
            "records": {
                "STUDYID": [
                    "ABC",
                    "ABC",
                    "ABC",
                    "ABC",
                    "ABC",
                    "ABC",
                    "ABC",
                    "ABC",
                    "ABC"
                ],
                "DOMAIN": [
                    "DM",
                    "DM",
                    "DM",
                    "DM",
                    "DM",
                    "DM",
                    "DM",
                    "DM",
                    "DM"
                ],
                "USUBJID": [
                    "015246-076-0003-00003",
                    "015246-076-0003-00004",
                    "015246-076-0003-00005",
                    "015246-076-0003-00006",
                    "015246-076-0003-00007",
                    "015246-076-0003-00008",
                    "015246-076-0003-00009",
                    "015246-076-0003-00010",
                    "015246-076-0003-00011"
                ],
                "SUBJID": [
                    "076000300003",
                    "076000300004",
                    "076000300005",
                    "076000300006",
                    "076000300007",
                    "076000300008",
                    "076000300009",
                    "076000300010",
                    "076000300011"
                ],
                "RFSTDTC": [
                    "",
                    "",
                    "",
                    "",
                    "",
                    "",
                    "2023-01-03",
                    "2023-01-04",
                    "2023-01-05"
                ],
                "RFENDTC": [
                    "",
                    "",
                    "",
                    "",
                    "",
                    "",
                    "2023-01-03",
                    "2023-01-04",
                    "2023-01-05"
                ],
                "RFXSTDTC": [
                    "2018-04-02T11:32",
                    "2018-05-08T11:20",
                    "2018-05-08T11:21",
                    "2018-05-08T11:22",
                    "2018-05-08T11:23",
                    "2018-05-08T11:20",
                    "2018-04-02T11:32",
                    "2018-05-08T11:20",
                    "2018-05-08T11:20"
                ],
                "RFXENDTC": [
                    "2019-02-19T10:55",
                    "2018-08-29T10:35",
                    "2018-08-29T10:36",
                    "2018-08-29T10:37",
                    "2018-08-29T10:38",
                    "2018-08-29T10:35",
                    "2019-02-19T10:55",
                    "2018-08-29T10:35",
                    "2018-08-29T10:35"
                ],
                "RFICDTC": [
                    "2018-03-06",
                    "2018-04-17",
                    "2018-04-18",
                    "2018-04-19",
                    "2018-04-20",
                    "2018-04-17",
                    "2018-03-06",
                    "2018-04-17",
                    "2018-04-17"
                ],
                "RFPENDTC": [
                    "2021-02-18",
                    "2018-09-04",
                    "2018-09-04",
                    "2018-09-04",
                    "2018-09-04",
                    "2018-09-04",
                    "2021-02-18",
                    "2018-09-04",
                    "2018-09-04"
                ],
                "DTHDTC": [
                    "2021-02-18",
                    "2018-09-04",
                    "2018-09-04",
                    "2018-09-04",
                    "2018-09-04",
                    "2019-11-18",
                    "2021-02-18",
                    "2018-09-04",
                    "2019-11-18"
                ],
                "DTHFL": [
                    "",
                    "N",
                    "N",
                    "N",
                    "N",
                    "Y",
                    "",
                    "N",
                    "Y"
                ],
                "SITEID": [
                    "0760003",
                    "3000004",
                    "3000005",
                    "3000006",
                    "3000007",
                    "3000004",
                    "0760003",
                    "3000004",
                    "3000004"
                ],
                "BRTHDTC": [
                    "1940-01-14",
                    "1947-12-23",
                    "1947-12-24",
                    "1947-12-25",
                    "1947-12-26",
                    "1947-12-23",
                    "1940-01-14",
                    "1947-12-23",
                    "1947-12-23"
                ],
                "AGE": [
                    78,
                    70,
                    71,
                    72,
                    73,
                    71,
                    78,
                    70,
                    71
                ],
                "AGETXT": [
                    "",
                    "",
                    "",
                    "",
                    "",
                    "",
                    "",
                    "",
                    ""
                ],
                "AGEU": [
                    "YEARS",
                    "YEARS",
                    "YEARS",
                    "YEARS",
                    "YEARS",
                    "YEARS",
                    "YEARS",
                    "YEARS",
                    "YEARS"
                ],
                "SEX": [
                    "F",
                    "F",
                    "F",
                    "F",
                    "F",
                    "F",
                    "F",
                    "F",
                    "F"
                ],
                "RACE": [
                    "WHITE",
                    "WHITE",
                    "WHITE",
                    "WHITE",
                    "WHITE",
                    "WHITE",
                    "WHITE",
                    "WHITE",
                    "WHITE"
                ],
                "ETHNIC": [
                    "HISPANIC OR LATINO",
                    "NOT HISPANIC OR LATINO",
                    "NOT HISPANIC OR LATINO",
                    "NOT HISPANIC OR LATINO",
                    "NOT HISPANIC OR LATINO",
                    "NOT HISPANIC OR LATINO",
                    "HISPANIC OR LATINO",
                    "NOT HISPANIC OR LATINO",
                    "NOT HISPANIC OR LATINO"
                ],
                "ARMCD": [
                    "SCRNFAIL",
                    "NOTASSGN",
                    "NOTASSGN",
                    "NOTTRT",
                    "NOTTRT",
                    "SCRNFAIL",
                    "PLACEBO",
                    "ZAN_LOW",
                    "ZAN_HIGH"
                ],
                "ARM": [
                    "Screen Failure",
                    "Not Assigned",
                    "NOT ASSIGNED",
                    "Not Treated",
                    "NOT TREATED",
                    "SCREEN FAILURE",
                    "Placebo",
                    "Zanomaline Low Dose (54 mg)",
                    "Zanomaline High Dose (81 mg)"
                ],
                "ACTARMCD": [
                    "SCRNFAIL",
                    "NOTASSGN",
                    "NOTASSGN",
                    "NOTTRT",
                    "NOTTRT",
                    "SCRNFAIL",
                    "PLACEBO",
                    "RANDOM",
                    "RANDOM"
                ],
                "ACTARM": [
                    "Screen Failure",
                    "Not Assigned",
                    "NOT ASSIGNED",
                    "Not Treated",
                    "NOT TREATED",
                    "SCREEN FAILURE",
                    "Screen FAILURE",
                    "IKd",
                    "IKd"
                ]
            }
        }
    ],
    "standard": {
        "product": "sdtmig",
        "version": "3-2"
    },
    "codelists": []
}