STUDYID,DOMAIN,USUBJID,SUBJID,RFSTDTC,RFENDTC,RFXSTDTC,RFXENDTC,RFICDTC,RFPENDTC,DTHDTC,DTHFL,SITEID,BRTHDTC,AGE,AGEU,SEX,RACE,ETHNIC,ARMCD,ARM,ACTARMCD,ACTARM,ARMNRS,ACTARMUD,COUNTRY
CDISCCORE01,DM,015246-099-0000-00000,099000000000,,,,,2018-04-16,2018-05-04,,N,0990000,1940-08-14,20,YEARS,M,WHITE,NOT HISPANIC OR LATINO,,IKd,,,"ASSIGNED, NOT TREATED",,USA
CDISCCORE01,DM,015246-099-0000-00001,099000000001,,,,,2018-05-20,2018-06-10,,U,0990000,1941-08-14,60,YEARS,M,WHITE,NOT HISPANIC OR LATINO,,,,IKD,NOT ASSIGNED,,USA
CDISCCORE01,DM,015246-099-0000-00002,099000000002,,,,,2018-05-20,2018-06-10,2018-06-10,,0990000,1942-08-14,,,F,"BLACK OR
AFRICAN
AMERICAN",NOT HISPANIC OR LATINO,,,,,SCREEN FAILURE,,USA
CDISCCORE01,DM,015246-099-0000-00003,099000000003,2018-05-08T11:20,2018-08-29T10:35,2018-05-08T11:20,2018-08-29T10:35,2018-04-17,2018-09-04,2018-09-04,N,0990000,1947-12-23,50,,F,WHITE,NOT HISPANIC OR LATINO,IKD,IKd,PLACEBO,Placebo,UNPLANNED TREATMENT,,GRC
