{
    "rule": {
        "Authorities": [
            {
                "Organization": "CDISC",
                "Standards": [
                    {
                        "Name": "SDTMIG",
                        "References": [
                            {
                                "Citations": [
                                    {
                                        "Document": "IG v3.4",
                                        "Section": "4.2.7.4",
                                        "Cited_Guidance": "When findings are collected about an event or intervention, and the name of the event or intervention is collected in an \"Other, specify\" CRF field, the value in --OBJ variable depends on whether the FA record has a parent record and whether the \"Other, specify\" value was coded."
                                    }
                                ],
                                "Origin": "SDTM and SDTMIG Conformance Rules",
                                "Version": "2.0",
                                "Rule_Identifier": {
                                    "Id": "CG0602",
                                    "Version": "1"
                                }
                            }
                        ],
                        "Version": "3.4"
                    },
                    {
                        "Name": "TIG",
                        "References": [
                            {
                                "Citations": [
                                    {
                                        "Document": "TIG 1.0",
                                        "Section": "2.8.7.4",
                                        "Cited_Guidance": "When findings are collected about an event or intervention, and the name of the event or intervention is collected in an \"Other, specify\" CRF field, the value in --OBJ variable depends on whether the FA record has a parent record and whether the \"Other, specify\" value was coded."
                                    }
                                ],
                                "Origin": "TIG Conformance Rules",
                                "Version": "1.0",
                                "Rule_Identifier": {
                                    "Id": "TIG0656",
                                    "Version": "1"
                                }
                            }
                        ],
                        "Substandard": "SDTM",
                        "Version": "1.0"
                    }
                ]
            }
        ],
        "Check": {
            "all": [
                {
                    "name": "--DECOD",
                    "operator": "empty"
                },
                {
                    "name": "RELREC.FAOBJ",
                    "operator": "non_empty"
                },
                {
                    "name": "--TRT",
                    "operator": "not_equal_to",
                    "value": "RELREC.FAOBJ"
                }
            ]
        },
        "Core": {
            "Id": "CORE-000757",
            "Status": "Published",
            "Version": "1"
        },
        "Description": "When findings are collected about an intervention, and the interventions parent record exists and --DECOD = null, FAOBJ should be equal to --TRT.",
        "Executability": "Fully Executable",
        "Outcome": {
            "Message": "Interventions parent record exists and --DECOD = null, but FAOBJ is not equal to --TRT.",
            "Output_Variables": [
                "RELREC.FAOBJ",
                "--TRT",
                "--DECOD"
            ]
        },
        "Scope": {
            "Classes": {
                "Include": [
                    "INTERVENTIONS"
                ]
            },
            "Domains": {
                "Include": [
                    "ALL"
                ]
            },
            "Use_Case": "INDH"
        },
        "Sensitivity": "Record",
        "Match_Datasets": [
            {
                "Name": "RELREC",
                "Wildcard": "FA"
            }
        ],
        "Rule_Type": "Record Data"
    },
    "datasets": [
        {
            "filename": "cm.xpt",
            "name": "CM",
            "label": "Concomitant/Prior Medications",
            "domain": "CM",
            "variables": [
                {
                    "name": "STUDYID",
                    "label": "Study Identifier",
                    "type": "Char",
                    "length": 50
                },
                {
                    "name": "DOMAIN",
                    "label": "Domain Abbreviation",
                    "type": "Char",
                    "length": 50
                },
                {
                    "name": "USUBJID",
                    "label": "Unique Subject Identifier",
                    "type": "Char",
                    "length": 50
                },
                {
                    "name": "CMSEQ",
                    "label": "Sequence Number",
                    "type": "Num",
                    "length": 8
                },
                {
                    "name": "CMGRPID",
                    "label": "Group ID",
                    "type": "Char",
                    "length": 30
                },
                {
                    "name": "CMTRT",
                    "label": "Reported Name of Drug, Med, or Therapy",
                    "type": "Char",
                    "length": 50
                },
                {
                    "name": "CMDECOD",
                    "label": "Standardized Medication Name",
                    "type": "Char",
                    "length": 50
                },
                {
                    "name": "CMCAT",
                    "label": "Category for Medication",
                    "type": "Char",
                    "length": 50
                },
                {
                    "name": "CMSCAT",
                    "label": "Subcategory for Medication",
                    "type": "Char",
                    "length": 50
                },
                {
                    "name": "CMINDC",
                    "label": "Indication",
                    "type": "Char",
                    "length": 50
                },
                {
                    "name": "CMDOSE",
                    "label": "Dose per Administration",
                    "type": "Num",
                    "length": 8
                },
                {
                    "name": "CMDOSU",
                    "label": "Dose Units",
                    "type": "Char",
                    "length": 50
                },
                {
                    "name": "CMDOSFRQ",
                    "label": "Dosing Frequency per Interval",
                    "type": "Char",
                    "length": 50
                },
                {
                    "name": "CMROUTE",
                    "label": "Route of Administration",
                    "type": "Char",
                    "length": 50
                },
                {
                    "name": "EPOCH",
                    "label": "Epoch",
                    "type": "Char",
                    "length": 50
                },
                {
                    "name": "CMSTDTC",
                    "label": "Start Date/Time of Medication",
                    "type": "Char",
                    "length": 50
                },
                {
                    "name": "CMENDTC",
                    "label": "End Date/Time of Medication",
                    "type": "Char",
                    "length": 50
                },
                {
                    "name": "CMSTDY",
                    "label": "Study Day of Start of Medication",
                    "type": "Num",
                    "length": 8
                },
                {
                    "name": "CMENDY",
                    "label": "Study Day of End of Medication",
                    "type": "Num",
                    "length": 8
                },
                {
                    "name": "CMENRTPT",
                    "label": "End Relative to Reference Time Point",
                    "type": "Char",
                    "length": 50
                },
                {
                    "name": "CMENTPT",
                    "label": "End Reference Time Point",
                    "type": "Char",
                    "length": 50
                }
            ],
            "records": {
                "STUDYID": [
                    "CDISCPILOT01",
                    "CDISCPILOT01",
                    "CDISCPILOT01"
                ],
                "DOMAIN": [
                    "CM",
                    "CM",
                    "CM"
                ],
                "USUBJID": [
                    "CDISC001",
                    "CDISC001",
                    "CDISC001"
                ],
                "CMSEQ": [
                    1,
                    2,
                    3
                ],
                "CMGRPID": [
                    "1",
                    "2",
                    "3"
                ],
                "CMTRT": [
                    "ASPIRIN",
                    "METAMUCIL",
                    "HYDROCORTISONE, TOPICAL"
                ],
                "CMDECOD": [
                    "",
                    "PLANTAGO OVATA HUSK",
                    "CORTISONE"
                ],
                "CMCAT": [
                    "CONCOMITANT THERAPY",
                    "CONCOMITANT THERAPY",
                    "CONCOMITANT THERAPY"
                ],
                "CMSCAT": [
                    "PROPHYLAXIS THERAPY",
                    "PROPHYLAXIS THERAPY",
                    "PROPHYLAXIS THERAPY"
                ],
                "CMINDC": [
                    "PROPHYLAXIS OR NON-THERAPEUTIC USE",
                    "PROPHYLAXIS OR NON-THERAPEUTIC USE",
                    "PROPHYLAXIS OR NON-THERAPEUTIC USE"
                ],
                "CMDOSE": [
                    1,
                    1,
                    1
                ],
                "CMDOSU": [
                    "TABLET",
                    "TABLET",
                    "TABLET"
                ],
                "CMDOSFRQ": [
                    "QD",
                    "PRN",
                    "BID"
                ],
                "CMROUTE": [
                    "ORAL",
                    "ORAL",
                    "TOPICAL"
                ],
                "EPOCH": [
                    "SCREENING",
                    "SCREENING",
                    "TREATMENT"
                ],
                "CMSTDTC": [
                    "2011",
                    "2012-08",
                    "2013-01-11"
                ],
                "CMENDTC": [
                    "2013-04-29",
                    "",
                    ""
                ],
                "CMSTDY": [
                    null,
                    null,
                    43
                ],
                "CMENDY": [
                    151,
                    null,
                    null
                ],
                "CMENRTPT": [
                    "",
                    "ONGOING",
                    "ONGOING"
                ],
                "CMENTPT": [
                    "",
                    "2013-05-20",
                    "2013-05-20"
                ]
            }
        },
        {
            "filename": "ae.xpt",
            "name": "AE",
            "label": "Adverse Events",
            "domain": "AE",
            "variables": [
                {
                    "name": "STUDYID",
                    "label": "Study Identifier",
                    "type": "Char",
                    "length": 50
                },
                {
                    "name": "DOMAIN",
                    "label": "Domain Abbreviation",
                    "type": "Char",
                    "length": 50
                },
                {
                    "name": "USUBJID",
                    "label": "Unique Subject Identifier",
                    "type": "Char",
                    "length": 50
                },
                {
                    "name": "AESEQ",
                    "label": "Sequence Number",
                    "type": "Num",
                    "length": 8
                },
                {
                    "name": "AEGRPID",
                    "label": "Group ID",
                    "type": "Char",
                    "length": 50
                },
                {
                    "name": "AETERM",
                    "label": "Reported Term for the Adverse Event",
                    "type": "Char",
                    "length": 50
                },
                {
                    "name": "AEDECOD",
                    "label": "Dictionary-Derived Term",
                    "type": "Char",
                    "length": 50
                },
                {
                    "name": "AESER",
                    "label": "Serious Event",
                    "type": "Char",
                    "length": 50
                },
                {
                    "name": "AEACN",
                    "label": "Action Taken with Study Treatment",
                    "type": "Char",
                    "length": 50
                },
                {
                    "name": "AEREL",
                    "label": "Causality",
                    "type": "Char",
                    "length": 50
                },
                {
                    "name": "AEOUT",
                    "label": "Outcome of Adverse Event",
                    "type": "Char",
                    "length": 50
                },
                {
                    "name": "AESCAN",
                    "label": "Involves Cancer",
                    "type": "Char",
                    "length": 50
                },
                {
                    "name": "AESCONG",
                    "label": "Congenital Anomaly or Birth Defect",
                    "type": "Char",
                    "length": 50
                },
                {
                    "name": "AESDISAB",
                    "label": "Persist or Signif Disability/Incapacity",
                    "type": "Char",
                    "length": 50
                },
                {
                    "name": "AESDTH",
                    "label": "Results in Death",
                    "type": "Char",
                    "length": 50
                },
                {
                    "name": "AESHOSP",
                    "label": "Requires or Prolongs Hospitalization",
                    "type": "Char",
                    "length": 50
                },
                {
                    "name": "AESLIFE",
                    "label": "Is Life Threatening",
                    "type": "Char",
                    "length": 50
                },
                {
                    "name": "AECONTRT",
                    "label": "Concomitant or Additional Trtmnt Given",
                    "type": "Char",
                    "length": 50
                },
                {
                    "name": "AETOXGR",
                    "label": "Standard Toxicity Grade",
                    "type": "Char",
                    "length": 50
                },
                {
                    "name": "EPOCH",
                    "label": "Epoch",
                    "type": "Char",
                    "length": 50
                },
                {
                    "name": "AESTDTC",
                    "label": "Start Date/Time of Adverse Event",
                    "type": "Char",
                    "length": 50
                },
                {
                    "name": "AEENDTC",
                    "label": "End Date/Time of Adverse Event",
                    "type": "Char",
                    "length": 50
                },
                {
                    "name": "AESTDY",
                    "label": "Study Day of Start of Adverse Event",
                    "type": "Num",
                    "length": 8
                },
                {
                    "name": "AEENDY",
                    "label": "Study Day of End of Adverse Event",
                    "type": "Num",
                    "length": 8
                },
                {
                    "name": "AEENRTPT",
                    "label": "End Relative to Reference Time Point",
                    "type": "Char",
                    "length": 50
                },
                {
                    "name": "AEENTPT",
                    "label": "End Reference Time Point",
                    "type": "Char",
                    "length": 50
                }
            ],
            "records": {
                "STUDYID": [
                    "CDISCPILOT01",
                    "CDISCPILOT01"
                ],
                "DOMAIN": [
                    "AE",
                    "AE"
                ],
                "USUBJID": [
                    "CDISC001",
                    "CDISC001"
                ],
                "AESEQ": [
                    1,
                    2
                ],
                "AEGRPID": [
                    "3",
                    "2"
                ],
                "AETERM": [
                    "INJECTION SITE REACTION",
                    "FATIGUE"
                ],
                "AEDECOD": [
                    "",
                    ""
                ],
                "AESER": [
                    "N",
                    "N"
                ],
                "AEACN": [
                    "DRUG WITHDRAWN",
                    "DOSE NOT CHANGED"
                ],
                "AEREL": [
                    "RELATED",
                    "UNLIKELY RELATED"
                ],
                "AEOUT": [
                    "NOT RECOVERED/NOT RESOLVED",
                    "NOT RECOVERED/NOT RESOLVED"
                ],
                "AESCAN": [
                    "N",
                    "N"
                ],
                "AESCONG": [
                    "N",
                    "N"
                ],
                "AESDISAB": [
                    "N",
                    "N"
                ],
                "AESDTH": [
                    "N",
                    "N"
                ],
                "AESHOSP": [
                    "N",
                    "N"
                ],
                "AESLIFE": [
                    "N",
                    "N"
                ],
                "AECONTRT": [
                    "Y",
                    "N"
                ],
                "AETOXGR": [
                    "",
                    ""
                ],
                "EPOCH": [
                    "TREATMENT",
                    "TREATMENT"
                ],
                "AESTDTC": [
                    "2012-12-02",
                    "2013-01-14"
                ],
                "AEENDTC": [
                    "",
                    ""
                ],
                "AESTDY": [
                    3,
                    46
                ],
                "AEENDY": [
                    null,
                    null
                ],
                "AEENRTPT": [
                    "ONGOING",
                    "ONGOING"
                ],
                "AEENTPT": [
                    "2013-05-20",
                    "2013-05-20"
                ]
            }
        },
        {
            "filename": "relrec.xpt",
            "name": "RELREC",
            "label": "Related Records",
            "domain": "RELREC",
            "variables": [
                {
                    "name": "STUDYID",
                    "label": "Study Identifier",
                    "type": "Char",
                    "length": 50
                },
                {
                    "name": "RDOMAIN",
                    "label": "Related Domain Abbreviation",
                    "type": "Char",
                    "length": 50
                },
                {
                    "name": "USUBJID",
                    "label": "Unique Subject Identifier",
                    "type": "Char",
                    "length": 50
                },
                {
                    "name": "IDVAR",
                    "label": "Identifying Variable",
                    "type": "Char",
                    "length": 50
                },
                {
                    "name": "IDVARVAL",
                    "label": "Identifying Variable Value",
                    "type": "Char",
                    "length": 50
                },
                {
                    "name": "RELTYPE",
                    "label": "Relationship Type",
                    "type": "Char",
                    "length": 50
                },
                {
                    "name": "RELID",
                    "label": "Relationship Identifier",
                    "type": "Char",
                    "length": 50
                }
            ],
            "records": {
                "STUDYID": [
                    "CDISCPILOT01",
                    "CDISCPILOT01",
                    "CDISCPILOT01",
                    "CDISCPILOT01",
                    "CDISCPILOT01",
                    "CDISCPILOT01"
                ],
                "RDOMAIN": [
                    "AE",
                    "CM",
                    "AE",
                    "CM",
                    "AE",
                    "CM"
                ],
                "USUBJID": [
                    "",
                    "",
                    "",
                    "",
                    "",
                    ""
                ],
                "IDVAR": [
                    "AESEQ",
                    "CMSEQ",
                    "AESEQ",
                    "CMSEQ",
                    "AEGRPID",
                    "CMGRPID"
                ],
                "IDVARVAL": [
                    "3",
                    "1",
                    "1",
                    "3",
                    "",
                    ""
                ],
                "RELTYPE": [
                    "",
                    "",
                    "",
                    "",
                    "ONE",
                    "MANY"
                ],
                "RELID": [
                    "CMFA-1",
                    "CMFA-1",
                    "CMFA-2",
                    "CMFA-2",
                    "AEFA",
                    "AEFA"
                ]
            }
        }
    ],
    "standard": {
        "product": "sdtmig",
        "version": "3-4"
    },
    "codelists": []
}