STUDYID,DOMAIN,USUBJID,PRSEQ,PRSPID,PRTRT,PRDECOD,PRCAT,PRPRESP,PROCCUR,PRINDC,VISITNUM,VISIT,VISITDY,EPOCH,PRSTDTC,PRENDTC,PRSTDY,PRENDY,PRSTRTPT,PRSTTPT,PRENRTPT,PRENTPT
CDISCPILOT01,PR,CDISC009,1,1,CT SCAN,Computerised tomogram,IMAGING,,,ADVERSE EVENT,,,,TREATMENT,2021-04-28,2021-04-28,111,111,AFTER,2021-01-08,,
CDISCPILOT01,PR,CDISC010,2,2,DOPPLER LEFT LEG PERFORMED : CONCLUSION: NO EVIDENCE OF DVT,Ultrasound Doppler,PROCEDURE,,,MEDICAL HISTORY,,,,TREATMENT,2021-05-04,2021-05-04,117,117,AFTER,2021-01-10,,
CDISCPILOT01,PR,CDISC011,3,5,ECHOCARDIOGRAPHY,Echocardiogram,PROCEDURE,,,ADVERSE EVENT,,,,TREATMENT,2021-05-04,2021-05-04,117,117,AFTER,2020-01-08,,
CDISCPILOT01,PR,CDISC012,1,,ELECTROENCEPHALOGRAPHY,Electroencephalogram,MRI,Y,Y,,2,DAY 1,1,FOLLOW-UP,2021-06-05,,1,,,,,
CDISCPILOT01,PR,CDISC013,10,3,ENDDOSCOPIC CHOLECYSTECTOMY,Cholecystectomy,PROCEDURE,,,ADVERSE EVENT,,,,TREATMENT,2021-01-30,2021-01-30,23,23,,,,
CDISCPILOT01,PR,CDISC014,11,4,"EXTRACTION 23, 22 TEETH",Tooth extraction,PROCEDURE,,,OTHER,,,,TREATMENT,2021-02-04,2021-02-04,28,28,,2021-02-05,,
CDISCPILOT01,PR,CDISC016,5,,EXTRACTION OF 2 WISDOM TEETH,Wisdom teeth removal,PHYSICAL EXAMINATION,Y,Y,,1,SCREENING,-28,SCREENING,2021-05-07,,-25,,,,,
CDISCPILOT01,PR,CDISC017,6,,FIBROGASTRODUODENOSCOPY,Oesophagogastroduodenoscopy,PHYSICAL EXAMINATION,Y,Y,,2,DAY 1,1,SCREENING,2021-06-01,,1,,,,,
