STUDYID,DOMAIN,USUBJID,LBTESTCD,LBTEST,LBORRES,LBSTRESC
CDISCPILOT01,LB,CDISC001,SURVSTAT,Survival Status,ALIVE,ALIVE
CDISCPILOT01,LB,CDISC001,SURVSTAT,Survival Status,DEAD,DEAD
CDISCPILOT01,LB,CDISC001,SURVSTAT,Survival Status,ALIVE,ALIVE
CDISCPILOT01,LB,CDISC001,SURVSTAT,Survival Status,DEAD,DEAD
CDISCPILOT01,LB,CDISC001,SURVSTAT,Survival Status,ALIVE,ALIVE
CDISCPILOT01,LB,CDISC001,SURVSTAT,Survival Status,DEAD,DEAD
CDISCPILOT01,LB,CDISC001,SURVSTAT,Survival Status,ALIVE,ALIVE
CDISCPILOT01,LB,CDISC002,SURVSTAT,Survival Status,DEAD,DEAD
CDISCPILOT01,LB,CDISC002,SURVSTAT,Survival Status,ALIVE,ALIVE
CDISCPILOT01,LB,CDISC002,SURVSTAT,Survival Status,DEAD,DEAD
CDISCPILOT01,LB,CDISC002,SURVSTAT,Survival Status,ALIVE,ALIVE
CDISCPILOT01,LB,CDISC002,SURVSTAT,Survival Status,DEAD,DEAD
CDISCPILOT01,LB,CDISC002,SURVSTAT,Survival Status,ALIVE,ALIVE
CDISCPILOT01,LB,CDISC002,SURVSTAT,Survival Status,DEAD,DEAD
