{
    "rule": {
        "Authorities": [
            {
                "Organization": "CDISC",
                "Standards": [
                    {
                        "Name": "SENDIG",
                        "References": [
                            {
                                "Citations": [
                                    {
                                        "Document": "IG v3.0",
                                        "Section": "4.5.1.1",
                                        "Cited_Guidance": "Occasionally data that are intended to be numeric are collected with characters attached that cause the character-to numeric conversion to fail. For example, numeric cell counts in the source data may be specified with a greater than (>) or less than (<) sign attached (e.g., >10,000 or <1). These values should have a null result in the --STRESN column since only numeric values can be represented in the --STRESN field."
                                    }
                                ],
                                "Origin": "SEND Conformance Rules",
                                "Version": "5.0",
                                "Rule_Identifier": {
                                    "Id": "SEND91",
                                    "Version": "1"
                                }
                            }
                        ],
                        "Version": "3.0"
                    },
                    {
                        "Name": "SENDIG",
                        "References": [
                            {
                                "Citations": [
                                    {
                                        "Document": "IG v3.1",
                                        "Section": "4.5.1.1",
                                        "Cited_Guidance": "Occasionally data that are intended to be numeric are collected with characters attached that cause the character-to numeric conversion to fail. For example, numeric cell counts in the source data may be specified with a greater than (>) or less than (<) sign attached (e.g., >10,000 or <1). These values should have a null result in the --STRESN column since only numeric values can be represented in the --STRESN field."
                                    }
                                ],
                                "Origin": "SEND Conformance Rules",
                                "Version": "5.0",
                                "Rule_Identifier": {
                                    "Id": "SEND91",
                                    "Version": "1"
                                }
                            }
                        ],
                        "Version": "3.1"
                    },
                    {
                        "Name": "SENDIG",
                        "References": [
                            {
                                "Citations": [
                                    {
                                        "Document": "IG v3.1.1",
                                        "Section": "4.5.1.1",
                                        "Cited_Guidance": "Occasionally data that are intended to be numeric are collected with characters attached that cause the character-to numeric conversion to fail. For example, numeric cell counts in the source data may be specified with a greater than (>) or less than (<) sign attached (e.g., >10,000 or <1). These values should have a null result in the --STRESN column since only numeric values can be represented in the --STRESN field."
                                    }
                                ],
                                "Origin": "SEND Conformance Rules",
                                "Version": "5.0",
                                "Rule_Identifier": {
                                    "Id": "SEND91",
                                    "Version": "1"
                                }
                            }
                        ],
                        "Version": "3.1.1"
                    },
                    {
                        "Name": "SENDIG-DART",
                        "References": [
                            {
                                "Citations": [
                                    {
                                        "Document": "IG v3.1",
                                        "Section": "4.5.1.1",
                                        "Cited_Guidance": "Occasionally data that are intended to be numeric are collected with characters attached that cause the character-to numeric conversion to fail. For example, numeric cell counts in the source data may be specified with a greater than (>) or less than (<) sign attached (e.g., >10,000 or <1). These values should have a null result in the --STRESN column since only numeric values can be represented in the --STRESN field."
                                    }
                                ],
                                "Origin": "SEND Conformance Rules",
                                "Version": "5.0",
                                "Rule_Identifier": {
                                    "Id": "SEND91",
                                    "Version": "1"
                                }
                            }
                        ],
                        "Version": "1.1"
                    },
                    {
                        "Name": "SENDIG-DART",
                        "References": [
                            {
                                "Citations": [
                                    {
                                        "Document": "IG v3.1.1",
                                        "Section": "4.5.1.1",
                                        "Cited_Guidance": "Occasionally data that are intended to be numeric are collected with characters attached that cause the character-to numeric conversion to fail. For example, numeric cell counts in the source data may be specified with a greater than (>) or less than (<) sign attached (e.g., >10,000 or <1). These values should have a null result in the --STRESN column since only numeric values can be represented in the --STRESN field."
                                    }
                                ],
                                "Origin": "SEND Conformance Rules",
                                "Version": "5.0",
                                "Rule_Identifier": {
                                    "Id": "SEND91",
                                    "Version": "1"
                                }
                            }
                        ],
                        "Version": "1.2"
                    },
                    {
                        "Name": "SENDIG-GENETOX",
                        "References": [
                            {
                                "Citations": [
                                    {
                                        "Document": "IG v3.1.1",
                                        "Section": "4.5.1.1",
                                        "Cited_Guidance": "Occasionally data that are intended to be numeric are collected with characters attached that cause the character-to numeric conversion to fail. For example, numeric cell counts in the source data may be specified with a greater than (>) or less than (<) sign attached (e.g., >10,000 or <1). These values should have a null result in the --STRESN column since only numeric values can be represented in the --STRESN field."
                                    }
                                ],
                                "Origin": "SEND Conformance Rules",
                                "Version": "5.0",
                                "Rule_Identifier": {
                                    "Id": "SEND91",
                                    "Version": "1"
                                }
                            }
                        ],
                        "Version": "1.0"
                    },
                    {
                        "Name": "TIG",
                        "References": [
                            {
                                "Citations": [
                                    {
                                        "Document": "TIG v1.0",
                                        "Item": "Text",
                                        "Section": "2.8.7.1",
                                        "Cited_Guidance": "Occasionally data that are intended to be numeric are collected with characters attached that cause the character-to numeric conversion to fail. For example, numeric cell counts in the source data may be specified with a greater than (>) or less than (<) sign attached (e.g., >10,000 or <1). These values should have a null result in the --STRESN column since only numeric values can be represented in the --STRESN field."
                                    }
                                ],
                                "Origin": "TIG Conformance Rules",
                                "Version": "1.0",
                                "Rule_Identifier": {
                                    "Id": "TIG0281",
                                    "Version": "1"
                                }
                            }
                        ],
                        "Substandard": "SEND",
                        "Version": "1.0"
                    }
                ]
            }
        ],
        "Check": {
            "all": [
                {
                    "name": "--ORRES",
                    "operator": "not_matches_regex",
                    "value": "^(?:[+-]?(\\d+(\\.\\d+)?|\\.\\d+)|[a-zA-Z]+|[^\\d\\s\\w]+)$"
                },
                {
                    "name": "--STRESN",
                    "operator": "non_empty"
                }
            ]
        },
        "Core": {
            "Id": "CDISC.SENDIG.91",
            "Status": "Draft",
            "Version": "1"
        },
        "Description": "When --ORRES is representing numeric data with special characters like '<' and '>', , --STRESN may not be populated.",
        "Executability": "Partially Executable",
        "Outcome": {
            "Message": "--STRESN may not be populated as --ORRES does not represent a pure numeric value.",
            "Output_Variables": [
                "--ORRES",
                "--STRESN"
            ]
        },
        "Scope": {
            "Classes": {
                "Include": [
                    "FINDINGS"
                ]
            },
            "Domains": {
                "Include": [
                    "ALL"
                ]
            },
            "Use_Case": "NONCLIN"
        },
        "Sensitivity": "Record",
        "Rule_Type": "Record Data"
    },
    "datasets": [
        {
            "filename": "eg.xpt",
            "label": "ECG Test Results",
            "domain": "EG",
            "variables": [
                {
                    "name": "STUDYID",
                    "label": "Study Identifier",
                    "type": "Char",
                    "length": 50
                },
                {
                    "name": "DOMAIN",
                    "label": "Domain Abbreviation",
                    "type": "Char",
                    "length": 50
                },
                {
                    "name": "USUBJID",
                    "label": "Unique Subject Identifier",
                    "type": "Char",
                    "length": 50
                },
                {
                    "name": "EGSEQ",
                    "label": "Sequence Number",
                    "type": "Num",
                    "length": 8
                },
                {
                    "name": "EGTESTCD",
                    "label": "ECG Test or Examination Short Name",
                    "type": "Char",
                    "length": 8
                },
                {
                    "name": "EGTEST",
                    "label": "ECG Test or Examination Name",
                    "type": "Char",
                    "length": 40
                },
                {
                    "name": "EGORRES",
                    "label": "Result or Finding in Original Units",
                    "type": "Char",
                    "length": 50
                },
                {
                    "name": "EGORRESU",
                    "label": "Original Units",
                    "type": "Char",
                    "length": 50
                },
                {
                    "name": "EGSTRESC",
                    "label": "Character Result/Finding in Std Format",
                    "type": "Char",
                    "length": 50
                },
                {
                    "name": "EGSTRESN",
                    "label": "Numeric Result/Finding in Std Format",
                    "type": "Num",
                    "length": 8
                },
                {
                    "name": "EGSTRESU",
                    "label": "Standard Units",
                    "type": "Char",
                    "length": 50
                },
                {
                    "name": "EGSTAT",
                    "label": "Completion Status",
                    "type": "Char",
                    "length": 50
                }
            ],
            "records": {
                "STUDYID": [
                    "1234",
                    "1234",
                    "1234",
                    "1234"
                ],
                "DOMAIN": [
                    "EG",
                    "EG",
                    "EG",
                    "EG"
                ],
                "USUBJID": [
                    "123101",
                    "123101",
                    "123102",
                    "123101"
                ],
                "EGSEQ": [
                    1,
                    2,
                    1,
                    1
                ],
                "EGTESTCD": [
                    "EGHRMN",
                    "PRAG",
                    "PRAG",
                    "EGHRMN"
                ],
                "EGTEST": [
                    "ECG Mean Heart Rate",
                    "PR Interval, Aggregate",
                    "PR Interval, Aggregate",
                    "ECG Mean Heart Rate"
                ],
                "EGORRES": [
                    "62",
                    "0.16",
                    "",
                    "<62"
                ],
                "EGORRESU": [
                    "beats/min",
                    "sec",
                    "sec",
                    "beats/min"
                ],
                "EGSTRESC": [
                    "62",
                    "150",
                    "",
                    "62"
                ],
                "EGSTRESN": [
                    62,
                    0.15,
                    null,
                    null
                ],
                "EGSTRESU": [
                    "beats/min",
                    "msec",
                    "msec",
                    "beats/min"
                ],
                "EGSTAT": [
                    "",
                    "",
                    "NOT DONE",
                    ""
                ]
            }
        },
        {
            "filename": "fa.xpt",
            "label": "Findings About Events or Interventions",
            "domain": "FA",
            "variables": [
                {
                    "name": "STUDYID",
                    "label": "Study Identifier",
                    "type": "Char",
                    "length": 50
                },
                {
                    "name": "DOMAIN",
                    "label": "Domain Abbreviation",
                    "type": "Char",
                    "length": 50
                },
                {
                    "name": "USUBJID",
                    "label": "Unique Subject Identifier",
                    "type": "Char",
                    "length": 50
                },
                {
                    "name": "FASEQ",
                    "label": "Sequence Number",
                    "type": "Num",
                    "length": 8
                },
                {
                    "name": "FATESTCD",
                    "label": "Findings About Test Short Name",
                    "type": "Char",
                    "length": 8
                },
                {
                    "name": "FATEST",
                    "label": "Findings About Test Name",
                    "type": "Char",
                    "length": 40
                },
                {
                    "name": "FAOBJ",
                    "label": "Object of the Observation",
                    "type": "Char",
                    "length": 50
                },
                {
                    "name": "FAORRES",
                    "label": "Result or Finding in Original Units",
                    "type": "Char",
                    "length": 50
                },
                {
                    "name": "FAORRESU",
                    "label": "Original Units",
                    "type": "Char",
                    "length": 50
                },
                {
                    "name": "FASTRESC",
                    "label": "Character Result/Finding in Std Format",
                    "type": "Char",
                    "length": 50
                },
                {
                    "name": "FASTRESN",
                    "label": "Numeric Result/Finding in Std Format",
                    "type": "Num",
                    "length": 8
                },
                {
                    "name": "FASTRESU",
                    "label": "Standard Units",
                    "type": "Char",
                    "length": 50
                },
                {
                    "name": "FASTAT",
                    "label": "Completion Status",
                    "type": "Char",
                    "length": 50
                }
            ],
            "records": {
                "STUDYID": [
                    "1234",
                    "1234",
                    "1234"
                ],
                "DOMAIN": [
                    "FA",
                    "FA",
                    "FA"
                ],
                "USUBJID": [
                    "123101",
                    "123101",
                    "123102"
                ],
                "FASEQ": [
                    1,
                    2,
                    1
                ],
                "FATESTCD": [
                    "SEV",
                    "OCCUR",
                    "SEV"
                ],
                "FATEST": [
                    "Severity/Intensity",
                    "Occurrence Indicator",
                    "Severity/Intensity"
                ],
                "FAOBJ": [
                    "Migraine",
                    "Sensitivity To Light",
                    "Migraine"
                ],
                "FAORRES": [
                    "SEVERE",
                    "",
                    "SEVERE"
                ],
                "FAORRESU": [
                    "",
                    "",
                    ""
                ],
                "FASTRESC": [
                    "SEVERE",
                    "",
                    "SEVERE"
                ],
                "FASTRESN": [
                    null,
                    null,
                    null
                ],
                "FASTRESU": [
                    "",
                    "",
                    ""
                ],
                "FASTAT": [
                    "",
                    "NOT DONE",
                    ""
                ]
            }
        },
        {
            "filename": "mi.xpt",
            "label": "Microscopic Findings",
            "domain": "MI",
            "variables": [
                {
                    "name": "STUDYID",
                    "label": "Study Identifier",
                    "type": "Char",
                    "length": 50
                },
                {
                    "name": "DOMAIN",
                    "label": "Domain Abbreviation",
                    "type": "Char",
                    "length": 50
                },
                {
                    "name": "USUBJID",
                    "label": "Unique Subject Identifier",
                    "type": "Char",
                    "length": 50
                },
                {
                    "name": "MISEQ",
                    "label": "Sequence Number",
                    "type": "Num",
                    "length": 8
                },
                {
                    "name": "MITESTCD",
                    "label": "Microscopic Examination Short Name",
                    "type": "Char",
                    "length": 8
                },
                {
                    "name": "MITEST",
                    "label": "Microscopic Examination Name",
                    "type": "Char",
                    "length": 50
                },
                {
                    "name": "MICAT",
                    "label": "Category for Microscopic Finding",
                    "type": "Char",
                    "length": 50
                },
                {
                    "name": "MISCAT",
                    "label": "Subcategory for Microscopic Finding",
                    "type": "Char",
                    "length": 50
                },
                {
                    "name": "MIORRES",
                    "label": "Result or Finding in Original Units",
                    "type": "Char",
                    "length": 50
                },
                {
                    "name": "MIORRESU",
                    "label": "Original Units",
                    "type": "Char",
                    "length": 50
                },
                {
                    "name": "MISTRESC",
                    "label": "Character Result/Finding in Std Format",
                    "type": "Char",
                    "length": 50
                },
                {
                    "name": "MISTRESN",
                    "label": "Numeric Result/Finding in Std Format",
                    "type": "Num",
                    "length": 8
                },
                {
                    "name": "MISTRESU",
                    "label": "Standard Units",
                    "type": "Char",
                    "length": 50
                },
                {
                    "name": "MIRESCAT",
                    "label": "Result Category",
                    "type": "Char",
                    "length": 50
                },
                {
                    "name": "MISTAT",
                    "label": "Completion Status",
                    "type": "Char",
                    "length": 50
                }
            ],
            "records": {
                "STUDYID": [
                    "ABC",
                    "ABC",
                    "ABC"
                ],
                "DOMAIN": [
                    "MI",
                    "MI",
                    "MI"
                ],
                "USUBJID": [
                    "ABC-1001",
                    "ABC-1002",
                    "ABC-1002"
                ],
                "MISEQ": [
                    1,
                    1,
                    1
                ],
                "MITESTCD": [
                    "HER2",
                    "HER2",
                    "HER2"
                ],
                "MITEST": [
                    "Human Epidermal Growth Factor Receptor 2",
                    "Human Epidermal Growth Factor Receptor 2",
                    "Human Epidermal Growth Factor Receptor 2"
                ],
                "MICAT": [
                    "",
                    "",
                    ""
                ],
                "MISCAT": [
                    "",
                    "",
                    ""
                ],
                "MIORRES": [
                    "0",
                    "2+",
                    "2a"
                ],
                "MIORRESU": [
                    "",
                    "",
                    ""
                ],
                "MISTRESC": [
                    "0",
                    "2+",
                    "2+"
                ],
                "MISTRESN": [
                    null,
                    null,
                    null
                ],
                "MISTRESU": [
                    "",
                    "",
                    ""
                ],
                "MIRESCAT": [
                    "NEGATIVE",
                    "POSITIVE",
                    "POSITIVE"
                ],
                "MISTAT": [
                    "",
                    "",
                    ""
                ]
            }
        },
        {
            "filename": "lb.xpt",
            "label": "Laboratory Test Results",
            "domain": "LB",
            "variables": [
                {
                    "name": "STUDYID",
                    "label": "Study Identifier",
                    "type": "Char",
                    "length": 50
                },
                {
                    "name": "DOMAIN",
                    "label": "Domain Abbreviation",
                    "type": "Char",
                    "length": 50
                },
                {
                    "name": "USUBJID",
                    "label": "Unique Subject Identifier",
                    "type": "Char",
                    "length": 50
                },
                {
                    "name": "LBSEQ",
                    "label": "Sequence Number",
                    "type": "Num",
                    "length": 8
                },
                {
                    "name": "LBTESTCD",
                    "label": "Lab Test or Examination Short Name",
                    "type": "Char",
                    "length": 50
                },
                {
                    "name": "LBTEST",
                    "label": "Lab Test or Examination Name",
                    "type": "Char",
                    "length": 50
                },
                {
                    "name": "LBORRES",
                    "label": "Result or Finding in Original Units",
                    "type": "Char",
                    "length": 50
                },
                {
                    "name": "LBORRESU",
                    "label": "Original Units",
                    "type": "Char",
                    "length": 50
                },
                {
                    "name": "LBSTRESC",
                    "label": "Character Result/Finding in Std Format",
                    "type": "Char",
                    "length": 50
                },
                {
                    "name": "LBSTRESN",
                    "label": "Numeric Result/Finding in Standard Units",
                    "type": "Num",
                    "length": 8
                },
                {
                    "name": "LBSTRESU",
                    "label": "Standard Units",
                    "type": "Char",
                    "length": 50
                },
                {
                    "name": "LBSTAT",
                    "label": "Completion Status",
                    "type": "Char",
                    "length": 50
                }
            ],
            "records": {
                "STUDYID": [
                    "1234",
                    "1234",
                    "1234"
                ],
                "DOMAIN": [
                    "LB",
                    "LB",
                    "LB"
                ],
                "USUBJID": [
                    "123101",
                    "123101",
                    "123101"
                ],
                "LBSEQ": [
                    1,
                    1,
                    1
                ],
                "LBTESTCD": [
                    "ALB",
                    "Prot",
                    "Prot"
                ],
                "LBTEST": [
                    "Albumin",
                    "Protein",
                    "Protein"
                ],
                "LBORRES": [
                    "0.30",
                    "200",
                    "<50"
                ],
                "LBORRESU": [
                    "g/L",
                    "g/L",
                    "g/L"
                ],
                "LBSTRESC": [
                    "0.30",
                    "200",
                    "50"
                ],
                "LBSTRESN": [
                    0.3,
                    200,
                    null
                ],
                "LBSTRESU": [
                    "g/L",
                    "g/L",
                    "g/L"
                ],
                "LBSTAT": [
                    "",
                    "",
                    ""
                ]
            }
        },
        {
            "filename": "vs.xpt",
            "label": "Vital Signs",
            "domain": "VS",
            "variables": [
                {
                    "name": "STUDYID",
                    "label": "Study Identifier",
                    "type": "Char",
                    "length": 50
                },
                {
                    "name": "DOMAIN",
                    "label": "Domain Abbreviation",
                    "type": "Char",
                    "length": 50
                },
                {
                    "name": "USUBJID",
                    "label": "Unique Subject Identifier",
                    "type": "Char",
                    "length": 50
                },
                {
                    "name": "VSSEQ",
                    "label": "Sequence Number",
                    "type": "Num",
                    "length": 8
                },
                {
                    "name": "VSTESTCD",
                    "label": "Vital Signs Test Short Name",
                    "type": "Char",
                    "length": 50
                },
                {
                    "name": "VSTEST",
                    "label": "Vital Signs Test Name",
                    "type": "Char",
                    "length": 50
                },
                {
                    "name": "VSORRES",
                    "label": "Result or Finding in Original Units",
                    "type": "Char",
                    "length": 50
                },
                {
                    "name": "VSORRESU",
                    "label": "Original Units",
                    "type": "Char",
                    "length": 50
                },
                {
                    "name": "VSSTRESC",
                    "label": "Character Result/Finding in Std Format",
                    "type": "Char",
                    "length": 50
                },
                {
                    "name": "VSSTRESN",
                    "label": "Numeric Result/Finding in Std Format",
                    "type": "Num",
                    "length": 8
                },
                {
                    "name": "VSSTRESU",
                    "label": "Standard Units",
                    "type": "Char",
                    "length": 50
                },
                {
                    "name": "VSSTAT",
                    "label": "Completion Status",
                    "type": "Char",
                    "length": 50
                }
            ],
            "records": {
                "STUDYID": [
                    "1234",
                    "1234",
                    "1234",
                    ""
                ],
                "DOMAIN": [
                    "VS",
                    "VS",
                    "VS",
                    ""
                ],
                "USUBJID": [
                    "123101",
                    "123101",
                    "123101",
                    "123102"
                ],
                "VSSEQ": [
                    1,
                    2,
                    2,
                    2
                ],
                "VSTESTCD": [
                    "SYSBP",
                    "DIABP",
                    "HR",
                    "HR"
                ],
                "VSTEST": [
                    "Systolic Blood Pressure",
                    "Diastolic Blood Pressure",
                    "Heart Rate",
                    "Heart Rate"
                ],
                "VSORRES": [
                    "154",
                    "44",
                    ">200",
                    "62,5"
                ],
                "VSORRESU": [
                    "mmHg",
                    "mmHg",
                    "beats/min",
                    "beats/min"
                ],
                "VSSTRESC": [
                    "154",
                    "44",
                    ">200",
                    ""
                ],
                "VSSTRESN": [
                    154,
                    44,
                    null,
                    null
                ],
                "VSSTRESU": [
                    "mmHg",
                    "mmHg",
                    "beats/min",
                    "beats/min"
                ],
                "VSSTAT": [
                    "",
                    "",
                    "",
                    ""
                ]
            }
        }
    ],
    "standard": {
        "product": "sendig",
        "version": "3-1"
    },
    "codelists": []
}