dataset,variable,label,type,length
qscg.xpt,STUDYID,Study Identifier,Char,12
qscg.xpt,DOMAIN,Domain Abbreviation,Char,4
qscg.xpt,USUBJID,Unique Subject Identifier,Char,8
qscg.xpt,QSSEQ,Sequence Number,Num,8
qscg.xpt,QSTESTCD,Question Short Name,Char,7
qscg.xpt,QSTEST,Question Name,Char,40
qscg.xpt,QSCAT,Category of Question,Char,5
qscg.xpt,QSORRES,Finding in Original Units,Char,23
qscg.xpt,QSSTRESC,Character Result/Finding in Std Format,Char,20
qscg.xpt,QSSTRESN,Numeric Finding in Standard Units,Num,8
qscg.xpt,QSLOBXFL,Last Observation Before Exposure Flag,Char,1
qscg.xpt,VISITNUM,Visit Number,Num,8
qscg.xpt,VISIT,Visit Name,Char,200
qscg.xpt,QSDTC,Date/Time of Finding,Char,10
qscg.xpt,QSDY,Study Day of Finding,Num,8
qspg.xpt,STUDYID,Study Identifier,Char,12
qspg.xpt,DOMAIN,Domain Abbreviation,Char,4
qspg.xpt,USUBJID,Unique Subject Identifier,Char,8
qspg.xpt,QSSEQ,Sequence Number,Num,8
qspg.xpt,QSTESTCD,Question Short Name,Char,7
qspg.xpt,QSTEST,Question Name,Char,40
qspg.xpt,QSCAT,Category of Question,Char,5
qspg.xpt,QSORRES,Finding in Original Units,Char,23
qspg.xpt,QSSTRESC,Character Result/Finding in Std Format,Char,20
qspg.xpt,QSSTRESN,Numeric Finding in Standard Units,Num,8
qspg.xpt,QSLOBXFL,Last Observation Before Exposure Flag,Char,1
qspg.xpt,VISITNUM,Visit Number,Num,8
qspg.xpt,VISIT,Visit Name,Char,200
qspg.xpt,QSDTC,Date/Time of Finding,Char,10
qspg.xpt,QSDY,Study Day of Finding,Num,8
apmh.xpt,STUDYID,Study Identifier,Char,50
apmh.xpt,DOMAIN,Domain Abbreviation,Char,50
apmh.xpt,APID,Associated Persons Identifier,Char,50
apmh.xpt,MHSEQ,Sequence Number,Num,8
apmh.xpt,RSUBJID,Related Subject or Pool Identifier,Char,50
apmh.xpt,SREL,"Subject, Device, or Study Relationship",Char,50
apmh.xpt,MHTERM,Reported Term for the Medical History,Char,50
apmh.xpt,MHPRESP,Medical History Event Pre-Specified,Char,50
apmh.xpt,MHOCCUR,Medical History Occurrence,Char,50
