{4 items
"rule":{9 items
"Authorities":[1 item
0:{2 items
"Organization":"CDISC"
"Standards":[7 items
0:{3 items
"Name":"SENDIG"
"References":[1 item
0:{4 items
"Citations":[1 item
0:{3 items
"Document":"IG v3.0"
"Section":"4.2.1"
"Cited_Guidance":"Variable names should be represented in uppercase."
}
]
"Origin":"SEND Conformance Rules"
"Version":"5.0"
"Rule_Identifier":{2 items
"Id":"SEND30"
"Version":"1"
}
}
]
"Version":"3.0"
}
1:{3 items
"Name":"SENDIG"
"References":[1 item
0:{4 items
"Citations":[1 item
0:{3 items
"Document":"IG v3.1"
"Section":"4.2.1"
"Cited_Guidance":"Variable names should be represented in uppercase."
}
]
"Origin":"SEND Conformance Rules"
"Version":"5.0"
"Rule_Identifier":{2 items
"Id":"SEND30"
"Version":"1"
}
}
]
"Version":"3.1"
}
2:{3 items
"Name":"SENDIG"
"References":[1 item
0:{4 items
"Citations":[1 item
0:{3 items
"Document":"IG v3.1.1"
"Section":"4.2.1"
"Cited_Guidance":"Variable names should be represented in uppercase."
}
]
"Origin":"SEND Conformance Rules"
"Version":"5.0"
"Rule_Identifier":{2 items
"Id":"SEND30"
"Version":"1"
}
}
]
"Version":"3.1.1"
}
3:{3 items
"Name":"SENDIG-DART"
"References":[1 item
0:{4 items
"Citations":[1 item
0:{3 items
"Document":"IG v3.1"
"Section":"4.2.1"
"Cited_Guidance":"Variable names should be represented in uppercase."
}
]
"Origin":"SEND Conformance Rules"
"Version":"5.0"
"Rule_Identifier":{2 items
"Id":"SEND30"
"Version":"1"
}
}
]
"Version":"1.1"
}
4:{3 items
"Name":"SENDIG-DART"
"References":[1 item
0:{4 items
"Citations":[1 item
0:{3 items
"Document":"IG v3.1.1"
"Section":"4.2.1"
"Cited_Guidance":"Variable names should be represented in uppercase."
}
]
"Origin":"SEND Conformance Rules"
"Version":"5.0"
"Rule_Identifier":{2 items
"Id":"SEND30"
"Version":"1"
}
}
]
"Version":"1.2"
}
5:{3 items
"Name":"SENDIG-GENETOX"
"References":[1 item
0:{4 items
"Citations":[1 item
0:{3 items
"Document":"IG v3.1.1"
"Section":"4.2.1"
"Cited_Guidance":"Variable names should be represented in uppercase."
}
]
"Origin":"SEND Conformance Rules"
"Version":"5.0"
"Rule_Identifier":{2 items
"Id":"SEND30"
"Version":"1"
}
}
]
"Version":"1.0"
}
6:{4 items
"Name":"TIG"
"References":[1 item
0:{4 items
"Citations":[1 item
0:{4 items
"Document":"TIG v1.0"
"Item":"Text"
"Section":"2.6, 2.8.3 (5.c)"
"Cited_Guidance":"Variable names should be represented in uppercase."
}
]
"Origin":"TIG Conformance Rules"
"Version":"1.0"
"Rule_Identifier":{2 items
"Id":"TIG0212"
"Version":"1"
}
}
]
"Substandard":"SEND"
"Version":"1.0"
}
]
}
]
"Check":{1 item
"all":[1 item
0:{3 items
"name":"variable_name"
"operator":"not_matches_regex"
"value":"^[A-Z0-9]*$"
}
]
}
"Core":{3 items
"Id":"CORE-000569"
"Status":"Published"
"Version":"1"
}
"Description":"Raise an error when variable name is not in uppercase"
"Executability":"Fully Executable"
"Outcome":{1 item
"Message":"Variable name must be in uppercase"
}
"Scope":{3 items
"Classes":{1 item
"Include":[1 item
0:"ALL"
]
}
"Domains":{1 item
"Include":[1 item
0:"ALL"
]
}
"Use_Case":"NONCLIN"
}
"Sensitivity":"Record"
"Rule_Type":"Variable Metadata Check"
}
"datasets":[2 items
0:{5 items
"filename":"dm.xpt"
"label":"Demographics"
"domain":"DM"
"variables":[9 items
0:{4 items
"name":"STUDYID"
"label":"Study Identifier"
"type":"Char"
"length":50
}
1:{4 items
"name":"DOMAIN"
"label":"Domain Abbreviation"
"type":"Char"
"length":50
}
2:{4 items
"name":"USUBJID"
"label":"Unique Subject Identifier"
"type":"Char"
"length":50
}
3:{4 items
"name":"ARMCD"
"label":"Planned Arm Code"
"type":"Char"
"length":50
}
4:{4 items
"name":"ARM"
"label":"Description of Planned Arm"
"type":"Char"
"length":50
}
5:{4 items
"name":"ACTARMCD"
"label":"Actual Arm Code"
"type":"Char"
"length":50
}
6:{4 items
"name":"ACTARM"
"label":"Description of Actual Arm"
"type":"Char"
"length":50
}
7:{4 items
"name":"ARMNRS"
"label":"Reason Arm and/or Actual Arm is Null"
"type":"Char"
"length":50
}
8:{4 items
"name":"ACTARMUD"
"label":"Description of Unplanned Actual Arm"
"type":"Char"
"length":50
}
]
"records":{9 items
"STUDYID":[5 items
0:"ABC123"
1:"ABC123"
2:"ABC123"
3:"ABC123"
4:"ABC123"
]
"DOMAIN":[5 items
0:"DM"
1:"DM"
2:"DM"
3:"DM"
4:"DM"
]
"USUBJID":[5 items
0:"123101"
1:"123102"
2:"123103"
3:"123104"
4:"123105"
]
"ARMCD":[5 items
0:"A"
1:"B"
2:""
3:""
4:"A"
]
"ARM":[5 items
0:"Drug A"
1:"Drug B"
2:""
3:""
4:"Drug A"
]
"ACTARMCD":[5 items
0:"A"
1:"B"
2:""
3:""
4:""
]
"ACTARM":[5 items
0:"Drug A"
1:"Drug B"
2:""
3:""
4:""
]
"ARMNRS":[5 items
0:""
1:""
2:"SCREEN FAILURE"
3:"NOT ASSIGNED"
4:"ASSIGNED, NOT TREATED"
]
"ACTARMUD":[5 items
0:""
1:""
2:""
3:""
4:""
]
}
}
1:{5 items
"filename":"ae.xpt"
"label":"Adverse Events"
"domain":"AE"
"variables":[24 items
0:{4 items
"name":"STUDYID"
"label":"Study Identifier"
"type":"Char"
"length":50
}
1:{4 items
"name":"DOMAIN"
"label":"Domain Abbreviation"
"type":"Char"
"length":50
}
2:{4 items
"name":"USUBJID"
"label":"Unique Subject Identifier"
"type":"Char"
"length":50
}
3:{4 items
"name":"AESEQ"
"label":"Sequence Number"
"type":"Num"
"length":8
}
4:{4 items
"name":"AETERM"
"label":"Reported Term for the Adverse Event"
"type":"Char"
"length":50
}
5:{4 items
"name":"AEMODIFY"
"label":"Modified Reported Term"
"type":"Char"
"length":50
}
6:{4 items
"name":"AEDECOD"
"label":"Dictionary-Derived Term"
"type":"Char"
"length":50
}
7:{4 items
"name":"AEBODSYS"
"label":"Body System or Organ Class"
"type":"Char"
"length":50
}
8:{4 items
"name":"AESEV"
"label":"Severity/Intensity"
"type":"Char"
"length":50
}
9:{4 items
"name":"AESER"
"label":"Serious Event"
"type":"Char"
"length":50
}
10:{4 items
"name":"AEACN"
"label":"Action Taken with Study Treatment"
"type":"Char"
"length":50
}
11:{4 items
"name":"AEREL"
"label":"Causality"
"type":"Char"
"length":50
}
12:{4 items
"name":"AEOUT"
"label":"Outcome of Adverse Event"
"type":"Char"
"length":50
}
13:{4 items
"name":"AESCONG"
"label":"Congenital Anomaly or Birth Defect"
"type":"Char"
"length":50
}
14:{4 items
"name":"AESDISAB"
"label":"Persist or Signif Disability/Incapacity"
"type":"Char"
"length":50
}
15:{4 items
"name":"AESDTH"
"label":"Results in Death"
"type":"Char"
"length":50
}
16:{4 items
"name":"AESHOSP"
"label":"Requires or Prolongs Hospitalization"
"type":"Char"
"length":50
}
17:{4 items
"name":"AESLIFE"
"label":"Is Life Threatening"
"type":"Char"
"length":50
}
18:{4 items
"name":"EPOCH"
"label":"Epoch"
"type":"Char"
"length":50
}
19:{4 items
"name":"AESTDTC"
"label":"Start Date/Time of Adverse Event"
"type":"Char"
"length":50
}
20:{4 items
"name":"AEENDTC"
"label":"End Date/Time of Adverse Event"
"type":"Char"
"length":50
}
21:{4 items
"name":"AESTDY"
"label":"Study Day of Start of Adverse Event"
"type":"Num"
"length":8
}
22:{4 items
"name":"AEENDY"
"label":"Study Day of End of Adverse Event"
"type":"Num"
"length":8
}
23:{4 items
"name":"AEENRF"
"label":"End Relative to Reference Period"
"type":"Char"
"length":50
}
]
"records":{24 items
"STUDYID":[3 items
0:"ABC123"
1:"ABC123"
2:"ABC123"
]
"DOMAIN":[3 items
0:"AE"
1:"AE"
2:"AE"
]
"USUBJID":[3 items
0:"123101"
1:"123101"
2:"123101"
]
"AESEQ":[3 items
0:1
1:2
2:3
]
"AETERM":[3 items
0:"POUNDING HEADACHE"
1:"BACK PAIN FOR 6 HOURS"
2:"PULMONARY EMBOLISM"
]
"AEMODIFY":[3 items
0:"HEADACHE"
1:"BACK PAIN"
2:""
]
"AEDECOD":[3 items
0:"Headache"
1:"Back pain"
2:"Pulmonary embolism"
]
"AEBODSYS":[3 items
0:"Nervous system disorders"
1:"Musculoskeletal and connective tissue disorders"
2:"Vascular disorders"
]
"AESEV":[3 items
0:"SEVERE"
1:"MODERATE"
2:"MODERATE"
]
"AESER":[3 items
0:"N"
1:"N"
2:"Y"
]
"AEACN":[3 items
0:"NOT APPLICABLE"
1:"DOSE REDUCED"
2:"DOSE REDUCED"
]
"AEREL":[3 items
0:"DEFINITELY NOT RELATED"
1:"PROBABLY RELATED"
2:"PROBABLY NOT RELATED"
]
"AEOUT":[3 items
0:"RECOVERED/RESOLVED"
1:"RECOVERED/RESOLVED"
2:"RECOVERING/RESOLVING"
]
"AESCONG":[3 items
0:""
1:""
2:""
]
"AESDISAB":[3 items
0:""
1:""
2:""
]
"AESDTH":[3 items
0:""
1:""
2:""
]
"AESHOSP":[3 items
0:""
1:""
2:"Y"
]
"AESLIFE":[3 items
0:""
1:""
2:"Y"
]
"EPOCH":[3 items
0:"SCREENING"
1:"TREATMENT"
2:"TREATMENT"
]
"AESTDTC":[3 items
0:"2005-10-12"
1:"2005-10-13T13:05"
2:"2005-10-21"
]
"AEENDTC":[3 items
0:"2005-10-12"
1:"2005-10-13T19:00"
2:""
]
"AESTDY":[3 items
0:-1
1:1
2:9
]
"AEENDY":[3 items
0:-1
1:1
2:NULL
]
"AEENRF":[3 items
0:""
1:""
2:"AFTER"
]
}
}
]
"standard":{2 items
"product":"sendig"
"version":"3-1"
}
"codelists":[]0 items