{
  "rule": {
    "Authorities": [
      {
        "Organization": "CDISC",
        "Standards": [
          {
            "Name": "SDTMIG",
            "References": [
              {
                "Citations": [
                  {
                    "Document": "IG v3.2",
                    "Item": "Assumption 6",
                    "Section": "5",
                    "Cited_Guidance": "If multiple races are collected then the value of RACE should be 'MULTIPLE' and the additional information will be included in the Supplemental Qualifiers dataset."
                  }
                ],
                "Origin": "SDTM and SDTMIG Conformance Rules",
                "Version": "2.0",
                "Rule_Identifier": {
                  "Id": "CG0140",
                  "Version": "1"
                }
              }
            ],
            "Version": "3.2"
          },
          {
            "Name": "SDTMIG",
            "References": [
              {
                "Citations": [
                  {
                    "Document": "IG v3.3",
                    "Item": "Assumption 6",
                    "Section": "5.2",
                    "Cited_Guidance": "If multiple races are collected then the value of RACE should be 'MULTIPLE' and the additional information will be included in the Supplemental Qualifiers dataset."
                  }
                ],
                "Origin": "SDTM and SDTMIG Conformance Rules",
                "Version": "2.0",
                "Rule_Identifier": {
                  "Id": "CG0140",
                  "Version": "1"
                }
              }
            ],
            "Version": "3.3"
          },
          {
            "Name": "SDTMIG",
            "References": [
              {
                "Citations": [
                  {
                    "Document": "IG v3.4",
                    "Item": "Assumption 6",
                    "Section": "5.2",
                    "Cited_Guidance": "If multiple races are collected then the value of RACE should be 'MULTIPLE' and the additional information will be included in the Supplemental Qualifiers dataset."
                  }
                ],
                "Origin": "SDTM and SDTMIG Conformance Rules",
                "Version": "2.0",
                "Rule_Identifier": {
                  "Id": "CG0140",
                  "Version": "1"
                }
              }
            ],
            "Version": "3.4"
          }
        ]
      }
    ],
    "Check": {
      "all": [
        {
          "name": "RACE",
          "operator": "not_equal_to",
          "value": "MULTIPLE"
        },
        {
          "name": "QNAM",
          "operator": "starts_with",
          "value": "RACE",
          "value_is_literal": true
        },
        {
          "name": "QNAM",
          "operator": "suffix_matches_regex",
          "suffix": 1,
          "value": "\\d"
        }
      ]
    },
    "Core": {
      "Id": "CDISC.SDTMIG.CG0140",
      "Status": "Draft",
      "Version": "1"
    },
    "Description": "Raise an error when multiple races are collected in SUPPDM but RACE in DM does not equal \"MULTIPLE\".",
    "Executability": "Fully Executable",
    "Outcome": {
      "Message": "Multiple races are collected in SUPPDM but RACE in DM does not equal \"MULTIPLE\"."
    },
    "Scope": {
      "Classes": {
        "Include": [
          "ALL"
        ]
      },
      "Domains": {
        "Include": [
          "SUPPDM"
        ]
      }
    },
    "Sensitivity": "Record",
    "Match_Datasets": [
      {
        "Keys": [
          "USUBJID"
        ],
        "Name": "DM",
        "Is_Relationship": true
      }
    ],
    "Rule_Type": "Record Data"
  },
  "datasets": [
    {
      "filename": "suppdm.xpt",
      "label": "Supplemental Qualifiers for DM",
      "domain": "SUPPDM",
      "variables": [
        {
          "name": "STUDYID",
          "label": "Study Identifier",
          "type": "Char",
          "length": 12
        },
        {
          "name": "RDOMAIN",
          "label": "Related Domain Abbreviation",
          "type": "Char",
          "length": 6
        },
        {
          "name": "USUBJID",
          "label": "Unique Subject Identifier",
          "type": "Char",
          "length": 8
        },
        {
          "name": "IDVAR",
          "label": "Identifying Variable",
          "type": "Char",
          "length": 200
        },
        {
          "name": "IDVARVAL",
          "label": "Identifying Variable Value",
          "type": "Char",
          "length": 200
        },
        {
          "name": "QNAM",
          "label": "Qualifier Variable Name",
          "type": "Char",
          "length": 5
        },
        {
          "name": "QLABEL",
          "label": "Qualifier Variable Label",
          "type": "Char",
          "length": 40
        },
        {
          "name": "QVAL",
          "label": "Data Value",
          "type": "Char",
          "length": 41
        },
        {
          "name": "QORIG",
          "label": "Origin",
          "type": "Char",
          "length": 13
        },
        {
          "name": "QEVAL",
          "label": "Evaluator",
          "type": "Char",
          "length": 200
        }
      ],
      "records": {
        "STUDYID": [
          "CDISCPILOT01",
          "CDISCPILOT01",
          "CDISCPILOT01"
        ],
        "RDOMAIN": [
          "DM",
          "DM",
          "DM"
        ],
        "USUBJID": [
          "CDISC008",
          "CDISC008",
          "CDISC008"
        ],
        "IDVAR": [
          "",
          "",
          ""
        ],
        "IDVARVAL": [
          "",
          "",
          ""
        ],
        "QNAM": [
          "RACE1",
          "RACE2",
          "RACE3"
        ],
        "QLABEL": [
          "Race 1",
          "Race 2",
          "Race 3"
        ],
        "QVAL": [
          "ASIAN",
          "BLACK OR AFRICAN AMERICAN",
          "WHITE"
        ],
        "QORIG": [
          "CRF",
          "CRF",
          "CRF"
        ],
        "QEVAL": [
          "",
          "",
          ""
        ]
      }
    },
    {
      "filename": "dm.xpt",
      "label": "Demographics",
      "domain": "DM",
      "variables": [
        {
          "name": "STUDYID",
          "label": "Study Identifier",
          "type": "Char",
          "length": 12
        },
        {
          "name": "DOMAIN",
          "label": "Domain Abbreviation",
          "type": "Char",
          "length": 2
        },
        {
          "name": "USUBJID",
          "label": "Unique Subject Identifier",
          "type": "Char",
          "length": 8
        },
        {
          "name": "SUBJID",
          "label": "Subject Identifier for the Study",
          "type": "Char",
          "length": 4
        },
        {
          "name": "RFSTDTC",
          "label": "Subject Reference Start Date/Time",
          "type": "Char",
          "length": 10
        },
        {
          "name": "RFENDTC",
          "label": "Subject Reference End Date/Time",
          "type": "Char",
          "length": 10
        },
        {
          "name": "RFXSTDTC",
          "label": "Date/Time of First Study Treatment",
          "type": "Char",
          "length": 10
        },
        {
          "name": "RFXENDTC",
          "label": "Date/Time of Last Study Treatment",
          "type": "Char",
          "length": 10
        },
        {
          "name": "RFICDTC",
          "label": "Date/Time of Informed Consent",
          "type": "Char",
          "length": 10
        },
        {
          "name": "RFPENDTC",
          "label": "Date/Time of End of Participation",
          "type": "Char",
          "length": 10
        },
        {
          "name": "DTHDTC",
          "label": "Date/Time of Death",
          "type": "Char",
          "length": 10
        },
        {
          "name": "DTHFL",
          "label": "Subject Death Flag",
          "type": "Char",
          "length": 1
        },
        {
          "name": "SITEID",
          "label": "Study Site Identifier",
          "type": "Char",
          "length": 3
        },
        {
          "name": "BRTHDTC",
          "label": "Date/Time of Birth",
          "type": "Char",
          "length": 10
        },
        {
          "name": "AGE",
          "label": "Age",
          "type": "Num",
          "length": 8
        },
        {
          "name": "AGEU",
          "label": "Age Units",
          "type": "Char",
          "length": 5
        },
        {
          "name": "SEX",
          "label": "Sex",
          "type": "Char",
          "length": 1
        },
        {
          "name": "RACE",
          "label": "Race",
          "type": "Char",
          "length": 41
        },
        {
          "name": "ETHNIC",
          "label": "Ethnicity",
          "type": "Char",
          "length": 22
        },
        {
          "name": "ARMCD",
          "label": "Planned Arm Code",
          "type": "Char",
          "length": 8
        },
        {
          "name": "ARM",
          "label": "Description of Planned Arm",
          "type": "Char",
          "length": 28
        },
        {
          "name": "ACTARMCD",
          "label": "Actual Arm Code",
          "type": "Char",
          "length": 8
        },
        {
          "name": "ACTARM",
          "label": "Description of Actual Arm",
          "type": "Char",
          "length": 28
        },
        {
          "name": "ARMNRS",
          "label": "Reason Arm and/or Actual Arm is Null",
          "type": "Char",
          "length": 14
        },
        {
          "name": "ACTARMUD",
          "label": "Description of Unplanned Actual Arm",
          "type": "Char",
          "length": 200
        },
        {
          "name": "COUNTRY",
          "label": "Country",
          "type": "Char",
          "length": 3
        }
      ],
      "records": {
        "STUDYID": [
          "CDISCPILOT01",
          "CDISCPILOT01"
        ],
        "DOMAIN": [
          "DM",
          "DM"
        ],
        "USUBJID": [
          "CDISC008",
          "CDISC007"
        ],
        "SUBJID": [
          "1115",
          "1115"
        ],
        "RFSTDTC": [
          "2012-11-30",
          "2012-11-30"
        ],
        "RFENDTC": [
          "2013-01-23",
          "2013-01-23"
        ],
        "RFXSTDTC": [
          "2012-11-30",
          "2012-11-30"
        ],
        "RFXENDTC": [
          "2013-01-23",
          "2013-01-23"
        ],
        "RFICDTC": [
          "2012-11-23",
          "2012-11-23"
        ],
        "RFPENDTC": [
          "2013-05-20",
          "2013-05-20"
        ],
        "DTHDTC": [
          "",
          ""
        ],
        "DTHFL": [
          "",
          ""
        ],
        "SITEID": [
          "701",
          "701"
        ],
        "BRTHDTC": [
          "1928",
          "1928"
        ],
        "AGE": [
          84,
          84
        ],
        "AGEU": [
          "YEARS",
          "YEARS"
        ],
        "SEX": [
          "M",
          "M"
        ],
        "RACE": [
          "MULTIPLE",
          "WHITE"
        ],
        "ETHNIC": [
          "NOT HISPANIC OR LATINO",
          "NOT HISPANIC OR LATINO"
        ],
        "ARMCD": [
          "ZAN_LOW",
          "ZAN_LOW"
        ],
        "ARM": [
          "Zanomaline Low Dose (54 mg)",
          "Zanomaline Low Dose (54 mg)"
        ],
        "ACTARMCD": [
          "ZAN_LOW",
          "ZAN_LOW"
        ],
        "ACTARM": [
          "Zanomaline Low Dose (54 mg)",
          "Zanomaline Low Dose (54 mg)"
        ],
        "ARMNRS": [
          "",
          ""
        ],
        "ACTARMUD": [
          "",
          ""
        ],
        "COUNTRY": [
          "USA",
          "USA"
        ]
      }
    }
  ],
  "standard": {
    "product": "sdtmig",
    "version": "3-3"
  },
  "codelists": []
}