STUDYID,DOMAIN,USUBJID,LBSEQ,LBTESTCD,LBTEST,LBORRES,LBORRESU,LBSTRESC,LBSTRESN,LBSTRESU,LBSTAT
1234,LB,123101,1,ALB,Albumin,0.30,g/L,0.30,0.30,g/L,
1234,LB,123101,1,Prot,Protein,200,g/L,200,200,g/L,
1234,LB,123101,1,Prot,Protein,<50,g/L,50,,g/L,
