STUDYID,DOMAIN,USUBJID,VSSEQ,VSTESTCD,VSTEST,VSORRES,VSORRESU,VSSTRESC,VSSTRESN,VSSTRESU,VSSTAT
1234,VS,123101,1,SYSBP,Systolic Blood Pressure,154,mmHg,154,154,mmHg,
1234,VS,123101,2,DIABP,Diastolic Blood Pressure,44,mmHg,44,44,mmHg,
1234,VS,123101,2,HR,Heart Rate,>200,beats/min,>200,,beats/min,
,,123102,2,HR,Heart Rate,"62,5",beats/min,,,beats/min,
