{3 items
"datasets":[2 items
0:{5 items
"filename":"facm.xpt"
"label":"Findings About CM Records"
"domain":"FA"
"variables":[16 items
0:{4 items
"name":"STUDYID"
"label":"Study Identifier"
"type":"Char"
"length":12
}
1:{4 items
"name":"DOMAIN"
"label":"Domain Abbreviation"
"type":"Char"
"length":2
}
2:{4 items
"name":"USUBJID"
"label":"Unique Subject Identifier"
"type":"Char"
"length":8
}
3:{4 items
"name":"FASEQ"
"label":"Sequence Number"
"type":"Num"
"length":8
}
4:{4 items
"name":"FALNKGRP"
"label":"Link Group ID"
"type":"Char"
"length":200
}
5:{4 items
"name":"FATESTCD"
"label":"Findings About Test Short Name"
"type":"Char"
"length":5
}
6:{4 items
"name":"FATEST"
"label":"Findings About Test Name"
"type":"Char"
"length":20
}
7:{4 items
"name":"FAOBJ"
"label":"Object of the Observation"
"type":"Char"
"length":10
}
8:{4 items
"name":"FACAT"
"label":"Category for Findings About"
"type":"Char"
"length":23
}
9:{4 items
"name":"FAORRES"
"label":"Result or Finding in Original Units"
"type":"Char"
"length":8
}
10:{4 items
"name":"FASTRESC"
"label":"Character Result/Finding in Std Format"
"type":"Char"
"length":8
}
11:{4 items
"name":"FALOC"
"label":"Location of the Finding About"
"type":"Char"
"length":3
}
12:{4 items
"name":"VISITNUM"
"label":"Visit Number"
"type":"Num"
"length":8
}
13:{4 items
"name":"EPOCH"
"label":"Epoch"
"type":"Char"
"length":9
}
14:{4 items
"name":"FADTC"
"label":"Date/Time of Collection"
"type":"Char"
"length":10
}
15:{4 items
"name":"FADY"
"label":"Study Day of Collection"
"type":"Num"
"length":8
}
]
"records":{16 items
"STUDYID":[2 items
0:"CDISCPILOT01"
1:"CDISCPILOT01"
]
"DOMAIN":[2 items
0:"FA"
1:"FA"
]
"USUBJID":[2 items
0:"CDISC001"
1:"CDISC001"
]
"FASEQ":[2 items
0:1
1:4
]
"FALNKGRP":[2 items
0:"1"
1:"1"
]
"FATESTCD":[2 items
0:"OCCUR"
1:"OCCUR"
]
"FATEST":[2 items
0:"Occurrence Indicator"
1:"Occurrence Indicator"
]
"FAOBJ":[2 items
0:"OMEPRAZOLE"
1:"OMEPRAZOLE"
]
"FACAT":[2 items
0:"INJECTION SITE REACTION"
1:"INJECTION SITE REACTION"
]
"FAORRES":[2 items
0:"Y"
1:"N"
]
"FASTRESC":[2 items
0:"Y"
1:"N"
]
"FALOC":[2 items
0:"ARM"
1:"ARM"
]
"VISITNUM":[2 items
0:NULL
1:NULL
]
"EPOCH":[2 items
0:"TREATMENT"
1:"TREATMENT"
]
"FADTC":[2 items
0:"2012-12-02"
1:"2012-12-02"
]
"FADY":[2 items
0:3
1:3
]
}
}
1:{5 items
"filename":"cm.xpt"
"label":"Concomitant Medications"
"domain":"CM"
"variables":[17 items
0:{4 items
"name":"STUDYID"
"label":"Study Identifier"
"type":"Char"
"length":12
}
1:{4 items
"name":"DOMAIN"
"label":"Domain Abbreviation"
"type":"Char"
"length":2
}
2:{4 items
"name":"USUBJID"
"label":"Unique Subject Identifier"
"type":"Char"
"length":8
}
3:{4 items
"name":"CMSEQ"
"label":"Sequence Number"
"type":"Num"
"length":8
}
4:{4 items
"name":"CMTRT"
"label":"Reported Name of Drug, Med, or Therapy"
"type":"Char"
"length":200
}
5:{4 items
"name":"CMINDC"
"label":"Indication"
"type":"Char"
"length":200
}
6:{4 items
"name":"CMDOSE"
"label":"Dose per Administration"
"type":"Num"
"length":8
}
7:{4 items
"name":"CMDOSU"
"label":"Dose Units"
"type":"Char"
"length":6
}
8:{4 items
"name":"CMDOSFRQ"
"label":"Dosing Frequency per Interval"
"type":"Char"
"length":3
}
9:{4 items
"name":"CMROUTE"
"label":"Route of Administration"
"type":"Char"
"length":24
}
10:{4 items
"name":"EPOCH"
"label":"Epoch"
"type":"Char"
"length":9
}
11:{4 items
"name":"CMSTDTC"
"label":"Start Date/Time of Medication"
"type":"Char"
"length":10
}
12:{4 items
"name":"CMENDTC"
"label":"End Date/Time of Medication"
"type":"Char"
"length":10
}
13:{4 items
"name":"CMSTDY"
"label":"Study Day of Start of Medication"
"type":"Num"
"length":8
}
14:{4 items
"name":"CMENDY"
"label":"Study Day of End of Medication"
"type":"Num"
"length":8
}
15:{4 items
"name":"CMENRTPT"
"label":"End Relative to Reference Time Point"
"type":"Char"
"length":7
}
16:{4 items
"name":"CMENTPT"
"label":"End Reference Time Point"
"type":"Char"
"length":10
}
]
"records":{17 items
"STUDYID":[6 items
0:"CDISCPILOT01"
1:"CDISCPILOT01"
2:"CDISCPILOT01"
3:"CDISCPILOT01"
4:"CDISCPILOT01"
5:"CDISCPILOT01"
]
"DOMAIN":[6 items
0:"CM"
1:"CM"
2:"CM"
3:"CM"
4:"CM"
5:"CM"
]
"USUBJID":[6 items
0:"CDISC001"
1:"CDISC001"
2:"CDISC001"
3:"CDISC001"
4:"CDISC001"
5:"CDISC001"
]
"CMSEQ":[6 items
0:1
1:2
2:3
3:4
4:5
5:6
]
"CMTRT":[6 items
0:"ASPIRIN"
1:"METAMUCIL"
2:"HYDROCORTISONE, TOPICAL"
3:"HYTRIN"
4:"ASPIRIN"
5:"FEOSOL"
]
"CMINDC":[6 items
0:"PROPHYLAXIS OR NON-THERAPEUTIC USE"
1:"PROPHYLAXIS OR NON-THERAPEUTIC USE"
2:"PROPHYLAXIS OR NON-THERAPEUTIC USE"
3:"PROPHYLAXIS OR NON-THERAPEUTIC USE"
4:"PROPHYLAXIS OR NON-THERAPEUTIC USE"
5:"PROPHYLAXIS OR NON-THERAPEUTIC USE"
]
"CMDOSE":[6 items
0:1
1:1
2:1
3:2
4:80
5:325
]
"CMDOSU":[6 items
0:"TABLET"
1:"TABLET"
2:"TABLET"
3:"TABLET"
4:"mg"
5:"mg"
]
"CMDOSFRQ":[6 items
0:"QD"
1:"PRN"
2:"BID"
3:"Q4H"
4:"QID"
5:"Q6H"
]
"CMROUTE":[6 items
0:"ORAL"
1:"ORAL"
2:"TOPICAL"
3:"ORAL"
4:"ORAL"
5:"ORAL"
]
"EPOCH":[6 items
0:"SCREENING"
1:"SCREENING"
2:"TREATMENT"
3:"TREATMENT"
4:"TREATMENT"
5:"TREATMENT"
]
"CMSTDTC":[6 items
0:"2011"
1:"2012-08"
2:"2013-01-11"
3:"2013-04-19"
4:"2013-04-29"
5:"2013-04-29"
]
"CMENDTC":[6 items
0:"2013-04-29"
1:""
2:""
3:"2013-05-14"
4:""
5:""
]
"CMSTDY":[6 items
0:NULL
1:NULL
2:43
3:141
4:151
5:151
]
"CMENDY":[6 items
0:151
1:NULL
2:NULL
3:166
4:NULL
5:NULL
]
"CMENRTPT":[6 items
0:""
1:"ONGOING"
2:"ONGOING"
3:""
4:"ONGOING"
5:"ONGOING"
]
"CMENTPT":[6 items
0:""
1:"2013-05-20"
2:"2013-05-20"
3:""
4:"2013-05-20"
5:"2013-05-20"
]
}
}
]
"standard":{2 items
"product":"sdtmig"
"version":"3-4"
}
"codelists":[]0 items
}