STUDYID,DOMAIN,USUBJID,FOCID,MASEQ,MASPID,MATESTCD,MATEST,MAORRES,MASTRESC,MASPEC,MABLFL,VISITNUM,VISIT,MADTC,MADY
CDISC-TEST,MA,CDISC-TEST-001,,1,46,GROSPATH,Gross Pathological Examination,"Discoloration dark, mucosal",Discoloration,"LARGE INTESTINE, CECUM",,100,VISIT 1 (WEEK -2),2019-02-25,-15
