STUDYID,USUBJID,SITEID,AGE,AGEU,SEX,RACE,SAFFL,ARM,ACTARM,TRTxxP,TRTxxPN
CDISCPILOT01,01-701-0001,701,25,YEARS,M,WHITE,Y,Placebo,Placebo,Placebo,0
CDISCPILOT01,01-702-0004,702,19,YEARS,M,BLACK OR AFRICAN AMERICAN,Y,Treatment Low,Treatment Low,Treatment Low,1
CDISCPILOT01,01-702-0005,702,66,YEARS,F,WHITE,Y,Treatment High,Treatment High,Treatment High,2
