STUDYID,USUBJID,TRTP,TRTPN,TRTA,TRTAN,PARAM,PARAMCD,PARAMN,PARCAT1,PARCAT1N,AVAL,AVALC,ABLFL,ABLFN
CDISCPILOT01,01-701-0001,Placebo,0,Placebo,0,Supine Pulse (bpm),PULSE,1,Supine Parameters,1,55,,,
CDISCPILOT01,01-702-0004,Treatment Low,1,Treatment Low,1,Supine Pulse (bpm),PULSE,1,Supine Parameters,1,48,,Y,1
CDISCPILOT01,01-702-0005,Treatment High,2,Treatment High,2,Supine Pulse (bpm),PULSE,1,Supine Parameters,1,110,,Y,1
CDISCPILOT01,01-702-0005,Treatment High,2,Treatment High,2,Supine Pulse (bpm),PULSE,1,Supine Parameters,1,91,,,
