STUDYID,DOMAIN,USUBJID,PRSEQ,PRTRT,PRDOSE,PRDOSTXT,PRDOSU,PRLOC,PRLAT,PRSTDTC,PRENDTC
ABC123,PR,ABC123-1001,1,External beam radiation therapy,70,,Gy,BREAST,RIGHT,2011-06-01 00:00:00,2011-06-25 00:00:00
ABC123,PR,ABC123-2002,1,Brachytherapy,25,,Gy,PROSTATE,,2011-07-15 00:00:00,2011-07-15 00:00:00
ABC123,PR,ABC123-3003,1,Radiotherapy,300,,cGy,BONE,,2011-08-19 00:00:00,2011-08-22 00:00:00
