STUDYID,DOMAIN,USUBJID,LBSEQ,LBTESTCD,LBTEST,LBORRES,LBORRESU,LBTOX,LBTOXGR
ABC123,LB,123101,1,HGFR,Hepatocyte Growth Factor Receptor,35,ng/mL,CTCAE 4.03,GRADE 1
ABC123,LB,123101,2,GLUC,HGFR,7,mg/dL,CTCAE 4.03,GRADE 2
