{3 items
"datasets":[2 items
0:{5 items
"filename":"vs.xpt"
"label":"Vital Signs"
"domain":"VS"
"variables":[24 items
0:{4 items
"name":"STUDYID"
"label":"Study Identifier"
"type":"Char"
"length":12
}
1:{4 items
"name":"DOMAIN"
"label":"Domain Abbreviation"
"type":"Char"
"length":2
}
2:{4 items
"name":"USUBJID"
"label":"Unique Subject Identifier"
"type":"Char"
"length":8
}
3:{4 items
"name":"POOLID"
"label":"Pool Identfier"
"type":"Char"
"length":8
}
4:{4 items
"name":"VSSEQ"
"label":"Sequence Number"
"type":"Num"
"length":8
}
5:{4 items
"name":"VSTESTCD"
"label":"Vital Signs Test Short Name"
"type":"Char"
"length":6
}
6:{4 items
"name":"VSTEST"
"label":"Vital Signs Test Name"
"type":"Char"
"length":24
}
7:{4 items
"name":"VSPOS"
"label":"Vital Signs Position of Subject"
"type":"Char"
"length":8
}
8:{4 items
"name":"VSORRES"
"label":"Result or Finding in Original Units"
"type":"Char"
"length":8
}
9:{4 items
"name":"VSORRESU"
"label":"Original Units"
"type":"Char"
"length":9
}
10:{4 items
"name":"VSSTRESC"
"label":"Character Result/Finding in Std Format"
"type":"Char"
"length":200
}
11:{4 items
"name":"VSSTRESN"
"label":"Numeric Result/Finding in Standard Units"
"type":"Num"
"length":8
}
12:{4 items
"name":"VSSTRESU"
"label":"Standard Units"
"type":"Char"
"length":9
}
13:{4 items
"name":"VSSTAT"
"label":"Completion Status"
"type":"Char"
"length":8
}
14:{4 items
"name":"VSLOC"
"label":"Location of Vital Signs Measurement"
"type":"Char"
"length":11
}
15:{4 items
"name":"VSLOBXFL"
"label":"Last Observation Before Exposure Flag"
"type":"Char"
"length":1
}
16:{4 items
"name":"VSREPNUM"
"label":"Repetition Number"
"type":"Num"
"length":8
}
17:{4 items
"name":"VISITNUM"
"label":"Visit Number"
"type":"Num"
"length":8
}
18:{4 items
"name":"VISIT"
"label":"Visit Name"
"type":"Char"
"length":200
}
19:{4 items
"name":"EPOCH"
"label":"Epoch"
"type":"Char"
"length":9
}
20:{4 items
"name":"VSDTC"
"label":"Date/Time of Measurements"
"type":"Char"
"length":10
}
21:{4 items
"name":"VSDY"
"label":"Study Day of Vital Signs"
"type":"Num"
"length":8
}
22:{4 items
"name":"VSTPT"
"label":"Planned Time Point Name"
"type":"Char"
"length":200
}
23:{4 items
"name":"VSTPTNUM"
"label":"Planned Time Point Number"
"type":"Num"
"length":8
}
]
"records":{24 items
"STUDYID":[6 items
0:"CDISCPILOT01"
1:"CDISCPILOT01"
2:"CDISCPILOT01"
3:"CDISCPILOT01"
4:"CDISCPILOT01"
5:"CDISCPILOT01"
]
"DOMAIN":[6 items
0:"VS"
1:"VS"
2:"VS"
3:"VS"
4:"VS"
5:"VS"
]
"USUBJID":[6 items
0:""
1:""
2:""
3:""
4:""
5:""
]
"POOLID":[6 items
0:"POOL1"
1:"POOL1"
2:"POOL1"
3:"POOL2"
4:"POOL2"
5:"POOL2"
]
"VSSEQ":[6 items
0:1
1:2
2:3
3:4
4:6
5:7
]
"VSTESTCD":[6 items
0:"DIABP"
1:"DIABP"
2:"DIABP"
3:"DIABP"
4:"DIABP"
5:"DIABP"
]
"VSTEST":[6 items
0:"Diastolic Blood Pressure"
1:"Diastolic Blood Pressure"
2:"Diastolic Blood Pressure"
3:"Diastolic Blood Pressure"
4:"Diastolic Blood Pressure"
5:"Diastolic Blood Pressure"
]
"VSPOS":[6 items
0:"STANDING"
1:"STANDING"
2:"STANDING"
3:"STANDING"
4:"SUPINE"
5:"STANDING"
]
"VSORRES":[6 items
0:"71"
1:""
2:""
3:"79"
4:"77"
5:"71"
]
"VSORRESU":[6 items
0:"mmHg"
1:""
2:""
3:"mmHg"
4:"mmHg"
5:"mmHg"
]
"VSSTRESC":[6 items
0:"71"
1:""
2:""
3:"79"
4:"77"
5:"71"
]
"VSSTRESN":[6 items
0:71
1:NULL
2:NULL
3:79
4:77
5:71
]
"VSSTRESU":[6 items
0:"mmHg"
1:""
2:""
3:"mmHg"
4:"mmHg"
5:"mmHg"
]
"VSSTAT":[6 items
0:""
1:"NOT DONE"
2:"NOT DONE"
3:""
4:""
5:""
]
"VSLOC":[6 items
0:""
1:""
2:""
3:""
4:""
5:""
]
"VSLOBXFL":[6 items
0:""
1:""
2:"Y"
3:""
4:""
5:""
]
"VSREPNUM":[6 items
0:NULL
1:NULL
2:NULL
3:NULL
4:1
5:2
]
"VISITNUM":[6 items
0:1
1:2
2:3
3:4
4:NULL
5:NULL
]
"VISIT":[6 items
0:"SCREENING 1"
1:"SCREENING 2"
2:"BASELINE"
3:"WEEK 2"
4:"WEEK 6"
5:"WEEK 6"
]
"EPOCH":[6 items
0:"SCREENING"
1:"SCREENING"
2:"SCREENING"
3:"TREATMENT"
4:"TREATMENT"
5:"TREATMENT"
]
"VSDTC":[6 items
0:"2012-11-23"
1:"2012-11-28"
2:"2012-11-30"
3:"2012-12-13"
4:"2013-01-10"
5:"2013-01-10"
]
"VSDY":[6 items
0:-7
1:-2
2:1
3:14
4:42
5:42
]
"VSTPT":[6 items
0:""
1:""
2:"PREDOSE"
3:"PREDOSE"
4:"5MIN POSTDOSE"
5:"5MIN POSTDOSE"
]
"VSTPTNUM":[6 items
0:NULL
1:NULL
2:-1
3:-1
4:-1
5:5
]
}
}
1:{5 items
"filename":"sc.xpt"
"label":"Subject Characteristics"
"domain":"SC"
"variables":[6 items
0:{4 items
"name":"STUDYID"
"label":"Study Identifier"
"type":"Char"
"length":12
}
1:{4 items
"name":"DOMAIN"
"label":"Domain Abbreviation"
"type":"Char"
"length":2
}
2:{4 items
"name":"USUBJID"
"label":"Unique Subject Identifier"
"type":"Char"
"length":8
}
3:{4 items
"name":"POOLID"
"label":"Pool Identfier"
"type":"Char"
"length":8
}
4:{4 items
"name":"VSSEQ"
"label":"Sequence Number"
"type":"Num"
"length":8
}
5:{4 items
"name":"SCSTAT"
"label":undefined
"type":undefined
"length":NaN
}
]
"records":{6 items
"STUDYID":[6 items
0:"CDISCPILOT01"
1:"CDISCPILOT01"
2:"CDISCPILOT01"
3:"CDISCPILOT01"
4:"CDISCPILOT01"
5:"CDISCPILOT01"
]
"DOMAIN":[6 items
0:"SC"
1:"SC"
2:"SC"
3:"SC"
4:"SC"
5:"SC"
]
"USUBJID":[6 items
0:""
1:""
2:""
3:""
4:""
5:""
]
"POOLID":[6 items
0:"POOL1"
1:"POOL1"
2:"POOL1"
3:"POOL2"
4:"POOL2"
5:"POOL2"
]
"VSSEQ":[6 items
0:1
1:2
2:3
3:4
4:6
5:7
]
"SCSTAT":[6 items
0:NULL
1:"MAYBE"
2:NULL
3:NULL
4:NULL
5:NULL
]
}
}
]
"standard":{2 items
"product":"sendig"
"version":"3-1"
}
"codelists":[]0 items
}