STUDYID,DOMAIN,USUBJID,ARMCD,ARM,ACTARMCD,ACTARM,ARMNRS,ACTARMUD,RFSTDTC,AGE
ABC123,DM,123101,A,Drug A,A,Drug A,,,2005-10-13T10:15,1
ABC123,DM,123102,B,Drug B,B,Drug B,,,,2
ABC123,DM,123103,,,,,SCREEN FAILURE,,,3
ABC123,DM,123104,,,,,NOT ASSIGNED,,,4
ABC123,DM,123105,A,Drug A,,,"ASSIGNED, NOT TREATED",,,
