{
   "rule": {
     "_links": {},
     "core_id": "CDISC.SDTMIG.CG0150",
     "reference": [
       {
         "Origin": "SDTM and SDTMIG Conformance Rules",
         "Rule Identifier": {
           "Id": "CG0150",
           "Version": "1"
         },
         "Version": "2.0"
       }
     ],
     "sensitivity": "Study",
     "severity": "error",
     "description": "Trigger error if SUBJID is not unique",
     "authority": {
       "Organization": "CDISC"
     },
     "standards": [
       {
         "Name": "SDTMIG",
         "Version": "3.4"
       }
     ],
     "classes": {
       "Include": [
         "Special-Purpose"
       ]
     },
     "domains": {
       "Include": [
         "DM"
       ]
     },
     "rule_type": "Uniqueness",
     "conditions": {
       "all": [
         {
           "name": "get_dataset",
           "operator": "is_not_unique_set",
           "value": {
             "target": "SUBJID",
             "comparator": [
               "STUDYID"
             ]
           }
         }
       ]
     },
     "output_variables": [
       "SUBJID"
     ],
     "actions": [
       {
         "name": "generate_dataset_error_objects",
         "params": {
           "message": "SUBJID is not unique within study"
         }
       }
     ]
   },
   "datasets": [
     {
       "filename": "dm.xpt",
       "domain": "DM",
       "variables": [
         {
           "name": "STUDYID",
           "label": "Study Identifier",
           "type": "Char",
           "length": 10
         },
         {
           "name": "DOMAIN",
           "label": "Domain Abbreviation",
           "type": "Char",
           "length": 2
         },
         {
           "name": "USUBJID",
           "label": "Unique Subject Identifier",
           "type": "Char",
           "length": 14
         },
         {
           "name": "SUBJID",
           "label": "Subject Identifier for the Study",
           "type": "Char",
           "length": 3
         },
         {
           "name": "RFSTDTC",
           "label": "Subject Reference Start Date/Time",
           "type": "Char",
           "length": 10
         },
         {
           "name": "RFENDTC",
           "label": "Subject Reference End Date/Time",
           "type": "Char",
           "length": 10
         },
         {
           "name": "RFXSTDTC",
           "label": "Date/Time of First Study Treatment",
           "type": "Char",
           "length": 10
         },
         {
           "name": "RFXENDTC",
           "label": "Date/Time of Last Study Treatment",
           "type": "Char",
           "length": 10
         },
         {
           "name": "RFICDTC",
           "label": "Date/Time of Informed Consent",
           "type": "Char",
           "length": 10
         },
         {
           "name": "RFPENDTC",
           "label": "Date/Time of End of Participation",
           "type": "Char",
           "length": 10
         },
         {
           "name": "DTHDTC",
           "label": "Date/Time of Death",
           "type": "Char",
           "length": 1
         },
         {
           "name": "DTHFL",
           "label": "Subject Death Flag",
           "type": "Char",
           "length": 1
         },
         {
           "name": "SITEID",
           "label": "Study Site Identifier",
           "type": "Char",
           "length": 3
         },
         {
           "name": "AGE",
           "label": "Age",
           "type": "Num",
           "length": 8
         },
         {
           "name": "AGEU",
           "label": "Age Units",
           "type": "Char",
           "length": 5
         },
         {
           "name": "SEX",
           "label": "Sex",
           "type": "Char",
           "length": 1
         },
         {
           "name": "RACE",
           "label": "Race",
           "type": "Char",
           "length": 1
         },
         {
           "name": "ARMCD",
           "label": "Planned Arm Code",
           "type": "Char",
           "length": 1
         },
         {
           "name": "ARM",
           "label": "Description of Planned Arm",
           "type": "Char",
           "length": 13
         },
         {
           "name": "ACTARMCD",
           "label": "Actual Arm Code",
           "type": "Char",
           "length": 1
         },
         {
           "name": "ACTARM",
           "label": "Description of Actual Arm",
           "type": "Char",
           "length": 13
         },
         {
           "name": "COUNTRY",
           "label": "Country",
           "type": "Char",
           "length": 3
         }
       ],
       "records": {
         "STUDYID": [
           "CDISC-TEST",
           "CDISC-TEST",
           "CDISC-TEST",
           "CDISC-TEST",
           "CDISC-TEST",
           "CDISC-TEST",
           "CDISC-TEST",
           "CDISC-TEST",
           "CDISC-TEST",
           "CDISC-TEST",
           "CDISC-TEST",
           "CDISC-TEST",
           "CDISC-TEST",
           "CDISC-TEST",
           "CDISC-TEST",
           "CDISC-TEST",
           "CDISC-TEST",
           "CDISC-TEST",
           "CDISC-TEST",
           "CDISC-TEST"
         ],
         "DOMAIN": [
           "DM",
           "DM",
           "DM",
           "DM",
           "DM",
           "DM",
           "DM",
           "DM",
           "DM",
           "DM",
           "DM",
           "DM",
           "DM",
           "DM",
           "DM",
           "DM",
           "DM",
           "DM",
           "DM",
           "DM"
         ],
         "USUBJID": [
           "CDISC-TEST-001",
           "CDISC-TEST-002",
           "CDISC-TEST-003",
           "CDISC-TEST-004",
           "CDISC-TEST-005",
           "CDISC-TEST-006",
           "CDISC-TEST-007",
           "CDISC-TEST-008",
           "CDISC-TEST-009",
           "CDISC-TEST-010",
           "CDISC-TEST-011",
           "CDISC-TEST-012",
           "CDISC-TEST-013",
           "CDISC-TEST-014",
           "CDISC-TEST-015",
           "CDISC-TEST-016",
           "CDISC-TEST-017",
           "CDISC-TEST-018",
           "CDISC-TEST-019",
           "CDISC-TEST-020"
         ],
         "SUBJID": [
           "001",
           "002",
           "003",
           "004",
           "005",
           "006",
           "007",
           "008",
           "009",
           "010",
           "011",
           "012",
           "013",
           "014",
           "015",
           "016",
           "017",
           "018",
           "019",
           "020"
         ],
         "RFSTDTC": [
           "2019-03-12",
           "2019-01-30",
           "2019-01-26",
           "2019-02-16",
           "2019-03-02",
           "2019-02-18",
           "2019-02-25",
           "2019-02-06",
           "2019-01-25",
           "2019-01-22",
           "2019-02-10",
           "2019-03-15",
           "2019-03-10",
           "2019-02-18",
           "2019-01-29",
           "2019-03-02",
           "2019-02-09",
           "2019-03-02",
           "2019-03-07",
           "2019-01-18"
         ],
         "RFENDTC": [
           "2019-09-10",
           "2019-07-31",
           "2019-07-27",
           "2019-08-17",
           "2019-08-31",
           "2019-08-19",
           "2019-08-26",
           "2019-08-07",
           "2019-07-26",
           "2019-07-23",
           "2019-08-11",
           "2019-09-13",
           "2019-09-08",
           "2019-08-19",
           "2019-07-30",
           "2019-08-31",
           "2019-08-10",
           "2019-08-31",
           "2019-09-05",
           "2019-07-19"
         ],
         "RFXSTDTC": [
           "2019-03-12",
           "2019-01-30",
           "2019-01-26",
           "2019-02-16",
           "2019-03-02",
           "2019-02-18",
           "2019-02-25",
           "2019-02-06",
           "2019-01-25",
           "2019-01-22",
           "2019-02-10",
           "2019-03-15",
           "2019-03-10",
           "2019-02-18",
           "2019-01-29",
           "2019-03-02",
           "2019-02-09",
           "2019-03-02",
           "2019-03-07",
           "2019-01-18"
         ],
         "RFXENDTC": [
           "2019-09-10",
           "2019-07-31",
           "2019-07-27",
           "2019-08-17",
           "2019-08-31",
           "2019-08-19",
           "2019-08-26",
           "2019-08-07",
           "2019-07-26",
           "2019-07-23",
           "2019-08-11",
           "2019-09-13",
           "2019-09-08",
           "2019-08-19",
           "2019-07-30",
           "2019-08-31",
           "2019-08-10",
           "2019-08-31",
           "2019-09-05",
           "2019-07-19"
         ],
         "RFICDTC": [
           "2019-02-25",
           "2019-01-15",
           "2019-01-11",
           "2019-02-01",
           "2019-02-15",
           "2019-02-03",
           "2019-02-10",
           "2019-01-22",
           "2019-01-10",
           "2019-01-07",
           "2019-01-26",
           "2019-02-28",
           "2019-02-23",
           "2019-02-03",
           "2019-01-14",
           "2019-02-15",
           "2019-01-25",
           "2019-02-15",
           "2019-02-20",
           "2019-01-03"
         ],
         "RFPENDTC": [
           "2019-10-10",
           "2019-08-30",
           "2019-08-26",
           "2019-09-16",
           "2019-09-30",
           "2019-09-18",
           "2019-09-25",
           "2019-09-06",
           "2019-08-25",
           "2019-08-22",
           "2019-09-10",
           "2019-10-13",
           "2019-10-08",
           "2019-09-18",
           "2019-08-29",
           "2019-09-30",
           "2019-09-09",
           "2019-09-30",
           "2019-10-05",
           "2019-08-18"
         ],
         "DTHDTC": [
           "",
           "",
           "",
           "",
           "",
           "",
           "",
           "",
           "",
           "",
           "",
           "",
           "",
           "",
           "",
           "",
           "",
           "",
           "",
           ""
         ],
         "DTHFL": [
           "",
           "",
           "",
           "",
           "",
           "",
           "",
           "",
           "",
           "",
           "",
           "",
           "",
           "",
           "",
           "",
           "",
           "",
           "",
           ""
         ],
         "SITEID": [
           "102",
           "103",
           "102",
           "102",
           "103",
           "102",
           "102",
           "102",
           "102",
           "103",
           "101",
           "102",
           "103",
           "102",
           "101",
           "102",
           "102",
           "103",
           "101",
           "103"
         ],
         "AGE": [
           26,
           34,
           57,
           31,
           21,
           52,
           57,
           50,
           48,
           32,
           63,
           57,
           31,
           56,
           21,
           51,
           48,
           34,
           19,
           33
         ],
         "AGEU": [
           "YEARS",
           "YEARS",
           "YEARS",
           "YEARS",
           "YEARS",
           "YEARS",
           "YEARS",
           "YEARS",
           "YEARS",
           "YEARS",
           "YEARS",
           "YEARS",
           "YEARS",
           "YEARS",
           "YEARS",
           "YEARS",
           "YEARS",
           "YEARS",
           "YEARS",
           "YEARS"
         ],
         "SEX": [
           "F",
           "M",
           "F",
           "F",
           "F",
           "F",
           "M",
           "F",
           "M",
           "M",
           "M",
           "F",
           "F",
           "M",
           "M",
           "M",
           "M",
           "F",
           "F",
           "M"
         ],
         "RACE": [
           "",
           "",
           "",
           "",
           "",
           "",
           "",
           "",
           "",
           "",
           "",
           "",
           "",
           "",
           "",
           "",
           "",
           "",
           "",
           ""
         ],
         "ARMCD": [
           "A",
           "A",
           "B",
           "A",
           "A",
           "A",
           "A",
           "A",
           "B",
           "B",
           "A",
           "A",
           "B",
           "A",
           "B",
           "A",
           "B",
           "B",
           "A",
           "B"
         ],
         "ARM": [
           "HUMAN INSULIN",
           "HUMAN INSULIN",
           "METFORMIN",
           "HUMAN INSULIN",
           "HUMAN INSULIN",
           "HUMAN INSULIN",
           "HUMAN INSULIN",
           "HUMAN INSULIN",
           "METFORMIN",
           "METFORMIN",
           "HUMAN INSULIN",
           "HUMAN INSULIN",
           "METFORMIN",
           "HUMAN INSULIN",
           "METFORMIN",
           "HUMAN INSULIN",
           "METFORMIN",
           "METFORMIN",
           "HUMAN INSULIN",
           "METFORMIN"
         ],
         "ACTARMCD": [
           "A",
           "A",
           "B",
           "A",
           "A",
           "A",
           "A",
           "A",
           "B",
           "B",
           "A",
           "A",
           "B",
           "A",
           "B",
           "A",
           "B",
           "B",
           "A",
           "B"
         ],
         "ACTARM": [
           "HUMAN INSULIN",
           "HUMAN INSULIN",
           "METFORMIN",
           "HUMAN INSULIN",
           "HUMAN INSULIN",
           "HUMAN INSULIN",
           "HUMAN INSULIN",
           "HUMAN INSULIN",
           "METFORMIN",
           "METFORMIN",
           "HUMAN INSULIN",
           "HUMAN INSULIN",
           "METFORMIN",
           "HUMAN INSULIN",
           "METFORMIN",
           "HUMAN INSULIN",
           "METFORMIN",
           "METFORMIN",
           "HUMAN INSULIN",
           "METFORMIN"
         ],
         "COUNTRY": [
           "FRA",
           "JPN",
           "FRA",
           "FRA",
           "JPN",
           "FRA",
           "FRA",
           "FRA",
           "FRA",
           "JPN",
           "USA",
           "FRA",
           "JPN",
           "FRA",
           "USA",
           "FRA",
           "FRA",
           "JPN",
           "USA",
           "JPN"
         ]
       }
     }
   ]
 }