STUDYID,DOMAIN,USUBJID,FASEQ,FALNKGRP,FATESTCD,FATEST,FAOBJ,FACAT,FASCAT,FAORRES,FAORRESU,FASTRESC,FASTRESN,FASTRESU,FALOC,FASTAT,FAREASND,VISITNUM,EPOCH,FADTC,FADY
CDISCPILOT01,FA,CDISC011,2,4,WIDTH,Width,ERYTHEMA,REACTION,,,,,,,ARM,NOT DONE,REASON1,,TREATMENT,2013-04-10,125
CDISCPILOT01,FA,CDISC011,11,2,WIDTH,Width,PRURITIS,REACTION,,,,,,mm,ARM,NOT DONE,REASON2,,TREATMENT,2013-01-12,37
CDISCPILOT01,FA,CDISC014,6,1,WIDTH,Width,PRURITIS,REACTION,,,,,,mm,ARM,NOT DONE,,,TREATMENT,2013-04-16,14
CDISCPILOT01,FA,CDISC017,4,5,LENGTH,Length,PRURITIS,REACTION,,,,,,,ARM,NOT DONE,REASON4,,TREATMENT,2013-12-29,100
CDISCPILOT01,FA,CDISC017,5,5,WIDTH,Width,PRURITIS,REACTION,,5,cm,5,5,cm,ARM,,,,TREATMENT,2013-12-29,100
CDISCPILOT01,FA,CDISC018,4,8,LENGTH,Length,PRURITIS,REACTION,,4,cm,4,4,cm,ARM,,,,TREATMENT,2013-01-27,42
CDISCPILOT01,FA,CDISC018,5,8,WIDTH,Width,PRURITIS,REACTION,,5,cm,5,5,cm,ARM,,,,TREATMENT,2013-01-27,42
