STUDYID,DOMAIN,USUBJID,POOLID,EXSEQ,EXTRT,EXDOSE,EXDOSU,EXDOSFRM,EXDOSFRQ,EXROUTE,EXLOT,EPOCH,EXSTDTC,EXENDTC,EXSTDY,EXENDY
CDISCPILOT01,EX,CDISC001,,1,ZANOMALINE,54,mg,INJECTION,QD,SUBCUTANEOUS,SDS580-359,TREATMENT,2012-11-30,2012-11-30,1,1
CDISCPILOT01,EX,,B,2,ZANOMALINE,54,mg,INJECTION,QD,SUBCUTANEOUS,SDS580-359,TREATMENT,2012-12-01,2012-12-01,2,2
CDISCPILOT01,EX,,B,3,ZANOMALINE,54,mg,INJECTION,QD,SUBCUTANEOUS,SDS580-359,TREATMENT,2012-12-02,2012-12-02,3,3
CDISCPILOT01,EX,CDISC001,,4,ZANOMALINE,54,mg,INJECTION,QD,SUBCUTANEOUS,SDS580-359,TREATMENT,2012-12-03,2012-12-03,4,4
CDISCPILOT01,EX,CDISC004,,1,PLACEBO,0,mg,INJECTION,QD,SUBCUTANEOUS,,TREATMENT,2013-10-08,2013-10-08,1,1
CDISCPILOT01,EX,CDISC004,,2,PLACEBO,0,mg,INJECTION,QD,SUBCUTANEOUS,,TREATMENT,2013-10-09,2013-10-09,2,2
CDISCPILOT01,EX,CDISC004,,3,PLACEBO,0,mg,INJECTION,QD,SUBCUTANEOUS,,TREATMENT,2013-10-10,2013-10-10,3,3
CDISCPILOT01,EX,CDISC004,,4,PLACEBO,0,mg,INJECTION,QD,SUBCUTANEOUS,,TREATMENT,2013-10-11,2013-10-11,4,4
CDISCPILOT01,EX,CDISC004,,5,PLACEBO,0,mg,INJECTION,QD,SUBCUTANEOUS,,TREATMENT,2013-10-12,2013-10-12,5,5
CDISCPILOT01,EX,CDISC004,,6,PLACEBO,0,mg,INJECTION,QD,SUBCUTANEOUS,,TREATMENT,2013-10-13,2013-10-13,6,6
CDISCPILOT01,EX,,B,7,PLACEBO,0,mg,INJECTION,QD,SUBCUTANEOUS,,TREATMENT,2013-10-14,2013-10-14,7,7
CDISCPILOT01,EX,CDISC004,,8,PLACEBO,0,mg,INJECTION,QD,SUBCUTANEOUS,,TREATMENT,2013-10-15,2013-10-15,8,8
