STUDYID,DOMAIN,USUBJID,SUBJID,RFSTDTC,RFENDTC,AGETXT,AGEU,SEX,SPECIES,STRAIN,SBSTRAIN,ARMCD,ARM
123,DM,ABC-101,101,38777,38823,8-9,WEEKS,M,RAT,FISCHER 344,Surgically ovariectomized,,ARM1
123,DM,ABC-102,102,38777,38823,8-9,WEEKS,M,RAT,FISCHER 344,Surgically ovariectomized,,ARM1
123,DM,ABC-103,103,38777,38823,8-9,WEEKS,M,RAT,ZUCKER,Zuker Diabetic Fatty; obese; Type 2 diabetic; ZDF.GmiCrl-fa/fa,,ARM3
123,DM,ABC-104,104,38777,38823,8-9,WEEKS,M,RAT,FISCHER 345,Surgically ovariectomized,,ARM2
123,DM,ABC-105,105,38777,38823,8-9,WEEKS,M,RAT,ZUCKER,Zuker Diabetic Fatty; obese; Type 2 diabetic; ZDF.GmiCrl-fa/fa,,ARM4
