STUDYID,DOMAIN,USUBJID,VISITNUM,VISIT,SVSTDTC,SVENDTC,SVSTDY,SVENDY,SVUPDES
CDISCPILOT01,SV,CDISC001,1,SCREENING 1,2012-11-23,2012-11-23,-7,-7,
CDISCPILOT01,SV,CDISC001,2,SCREENING 2,2012-11-28,2012-11-28,-2,-2,
CDISCPILOT01,SV,CDISC001,3,BASELINE,2012-11-30,2012-11-30,1,1,
