STUDYID,DOMAIN,USUBJID,ECSEQ,ECLNKID,ECTRT,ECPRESP,ECOCCUR,ECREASOC,ECDOSE,ECDOSTXT,ECDOSU,ECDOSFRM,EcROUTE,ECSTDTC,ECENDTC,ECSTDY,ECENDY
ABC,APEC,ABC1001,1,A2-10110114,BOTTLE A,Y,Y,,5,,mL,ONCE,SUBCUTANEOUS,2011-01-14 00:00:00,2011-01-28 00:00:00,1,15
ABC,APEC,ABC2001,1,A2-20110114,BOTTLE A,Y,Y,,2,,TABLET,QD,ORAL,2011-01-14 00:00:00,2011-01-23 00:00:00,1,10
ABC,APEC,ABC2001,2,A0-20110124,BOTTLE A,Y,N,PATIENT MISTAKE,,,TABLET,QD,ORAL,2011-01-24 00:00:00,2011-01-24 00:00:00,11,11
ABC,APEC,ABC2001,3,A2-20110125,BOTTLE A,Y,Y,,2,,TABLET,QD,,2011-01-25 00:00:00,2011-01-28 00:00:00,12,15
