STUDYID,DOMAIN,USUBJID,SUBJID,RFSTDTC,RFENDTC,RFXSTDTC,RFXENDTC,RFICDTC,RFPENDTC,DTHDTC,DTHFL,SITEID,BRTHDTC,AGE,AGEU,SEX,RACE,ETHNIC,ARMCD,ARM,ACTARMCD,ACTARM,ARMNRS,ACTARMUD,COUNTRY
CDISCPILOT01,DM,CDISC001,100002,2018-04-17T09:25,2019-03-13,2018-04-17T09:25,2019-03-13,2018-03-22,2019-09-29,2019-09-29,Y,701,1941-07-03,76,YEARS,M,WHITE,NOT HISPANIC OR LATINO,IKD,Ikd,IKD,Ikd,,,AUS
CDISCPILOT01,DM,CDISC002,100004,2018-05-17T09:35,2018-08-03,2018-05-17T09:35,2018-08-03,2018-04-26,2018-08-22,2018-08-22,Y,701,1947-07-24,70,YEARS,M,WHITE,NOT HISPANIC OR LATINO,IKD,Ikd,IKD,Ikd,,,AUS
CDISCPILOT01,DM,CDISC003,100003,2018-07-11T09:00,2020-03-12T13:15,2018-07-11T09:00,2020-03-12T13:15,2018-06-27,2020-05-14,2020-05-14,Y,702,1947-12-03,70,YEARS,F,WHITE,NOT HISPANIC OR LATINO,IKD,Ikd,IKD,Ikd,,,CZE
CDISCPILOT01,DM,CDISC004,100005,2018-07-11T09:00,2020-03-12T13:15,2018-07-11T09:00,2020-03-12T13:15,2018-06-27,2020-05-14,,,703,1947-12-03,70,YEARS,F,WHITE,NOT HISPANIC OR LATINO,IKD,Ikd,IKD,Ikd,,,CZE
