STUDYID,DOMAIN,USUBJID,DSSEQ,DSLNKID,DSTERM,DSDECOD,DSCAT,DSSCAT,EPOCH,DSSTDTC,DSSTDY
CDISCPILOT01,DS,CDISC001,1,,INFORMED CONSENT OBTAINED,INFORMED CONSENT OBTAINED,PROTOCOL MILESTONE,,SCREENING,2012-11-23,-7
CDISCPILOT01,DS,CDISC001,2,1,INJECTION SITE REACTION,ADVERSE EVENT,DISPOSITION EVENT,STUDY PARTICIPATION,TREATMENT,2013-01-23,55
CDISCPILOT01,DS,CDISC001,3,1,INJECTION SITE REACTION,ADVERSE EVENT,DISPOSITION EVENT,STUDY TREATMENT,TREATMENT,2013-01-23,55
CDISCPILOT01,DS,CDISC002,1,,INFORMED CONSENT OBTAINED,INFORMED CONSENT OBTAINED,PROTOCOL MILESTONE,,SCREENING,2012-10-30,-16
CDISCPILOT01,DS,CDISC002,2,8,DYSPNOEA,ADVERSE EVENT,DISPOSITION EVENT,STUDY TREATMENT,TREATMENT,2013-01-12,59
CDISCPILOT01,DS,CDISC002,3,9,SUDDEN DEATH,DEATH,DISPOSITION EVENT,STUDY PARTICIPATION,TREATMENT,2013-01-14,61
