STUDYID,DOMAIN,USUBJID,VISITNUM,VISIT,EPOCH,SVSTDTC,SVENDTC,SVSTDY,SVENDY,SVUPDES,TAETORD
Sample001,SV,1201001,10000,SCREENING,SCREENING,2018-06-29,2018-08-06,-45,-7, ,1
Sample001,SV,1201001,10101,CYCLE1DAY1,SCREENING,2018-08-12,2018-08-13,-1,1, ,1
Sample001,SV,1201001,10102,CYCLE1DAY2,"OPEN LABEL
TREATMENT",2018-08-14,2018-08-14,2,2, ,2
Sample001,SV,1201001,10116,CYCLE1DAY16,"OPEN LABEL
TREATMENT",2018-08-28,2018-08-28,16,16, ,2
Sample001,SV,1201001,84000,SURVIVAL FOLLOW-UP,FOLLOW-UP,2019-05-20,2020-03-30,281,596, ,3
Sample001,SV,1201001,81000,"90-DAY SAFETY
FOLLOW-UP",FOLLOW-UP,2019-07-22,2019-07-22,344,344, ,3
Sample001,SV,1201002,10000,SCREENING,SCREENING,2018-11-20,2018-12-21,-48,-17, ,1
Sample001,SV,1201002,10101,CYCLE1DAY1,SCREENING,2019-01-06,2019-01-07,-1,1, ,1
Sample001,SV,1201002,10102,CYCLE1DAY2,"OPEN LABEL
TREATMENT",2019-01-07T06:10,2019-01-08,2,2, ,28
Sample001,SV,1201002,10601,CYCLE6DAY1,"OPEN LABEL
TREATMENT",2019-04-22,2019-04-23,106,107, ,2
Sample001,SV,1201002,10608,CYCLE6DAY8,"OPEN LABEL
TREATMENT",2019-04-29,2019-04-30,113,114, ,2
Sample001,SV,1201002,12215,CYCLE22DAY15,"OPEN LABEL
TREATMENT",2020-04-06,2020-04-07,456,457, ,2
Sample001,SV,1201003,10000,SCREENING,SCREENING,2018-01-10,2018-01-24,-27,-13, ,1
Sample001,SV,1201003,10101,CYCLE1DAY1,SCREENING,2019-02-05,2019-02-07,-1,2, ,1
Sample001,SV,1201003,10102,CYCLE1DAY2,"OPEN LABEL
TREATMENT",2019-02-07,2019-02-07,2,2, ,2
Sample001,SV,1201003,10108,CYCLE1DAY8,"OPEN LABEL
TREATMENT",2019-04-12,2019-02-13,7,8, ,2
