{
  "rule": {
    "Authorities": [
      {
        "Organization": "CDISC",
        "Standards": [
          {
            "Name": "SENDIG",
            "Version": "3.0",
            "References": [
              {
                "Origin": "SEND Conformance Rules",
                "Version": "5.0",
                "Citations": [
                  {
                    "Document": "IG v3.0",
                    "Item": "Specification",
                    "Section": "5.2.2.1",
                    "Cited_Guidance": "IDVARVAL is used only when individual comments are related to domain records. Cannot be populated if IDVAR is null."
                  }
                ],
                "Rule_Identifier": {
                  "Id": "SEND118",
                  "Version": "1"
                }
              }
            ]
          },
          {
            "Name": "SENDIG",
            "Version": "3.1",
            "References": [
              {
                "Origin": "SEND Conformance Rules",
                "Version": "5.0",
                "Citations": [
                  {
                    "Document": "IG v3.1",
                    "Item": "Specification",
                    "Section": "5.2.2.1",
                    "Cited_Guidance": "IDVARVAL is used only when individual comments are related to domain records. Cannot be populated if IDVAR is null."
                  }
                ],
                "Rule_Identifier": {
                  "Id": "SEND118",
                  "Version": "1"
                }
              }
            ]
          },
          {
            "Name": "SENDIG",
            "Version": "3.1.1",
            "References": [
              {
                "Origin": "SEND Conformance Rules",
                "Version": "5.0",
                "Citations": [
                  {
                    "Document": "IG v3.1.1",
                    "Item": "Specification",
                    "Section": "5.2.2.1",
                    "Cited_Guidance": "IDVARVAL is used only when individual comments are related to domain records. Cannot be populated if IDVAR is null."
                  }
                ],
                "Rule_Identifier": {
                  "Id": "SEND118",
                  "Version": "1"
                }
              }
            ]
          },
          {
            "Name": "SENDIG-DART",
            "Version": "1.1",
            "References": [
              {
                "Origin": "SEND Conformance Rules",
                "Version": "5.0",
                "Citations": [
                  {
                    "Document": "IG v3.1",
                    "Item": "Specification",
                    "Section": "5.2.2.1",
                    "Cited_Guidance": "IDVARVAL is used only when individual comments are related to domain records. Cannot be populated if IDVAR is null."
                  }
                ],
                "Rule_Identifier": {
                  "Id": "SEND118",
                  "Version": "1"
                }
              }
            ]
          }
        ]
      }
    ],
    "Check": {
      "all": [
        {
          "name": "IDVAR",
          "operator": "empty"
        },
        {
          "name": "IDVARVAL",
          "operator": "non_empty"
        }
      ]
    },
    "Core": {
      "Id": "CDISC.SENDIG.118",
      "Status": "Draft",
      "Version": "1"
    },
    "Description": "IDVAR must be specified.",
    "Executability": "Fully Executable",
    "Outcome": {
      "Message": "IDVARVAL may not be populated as IDVAR is null",
      "Output_Variables": [
        "IDVARVAL",
        "IDVAR"
      ]
    },
    "Scope": {
      "Classes": {
        "Include": [
          "SPECIAL PURPOSE"
        ]
      },
      "Domains": {
        "Include": [
          "CO"
        ]
      }
    },
    "Sensitivity": "Record",
    "Rule_Type": "Record Data"
  },
  "datasets": [
    {
      "filename": "co.xpt",
      "domain": "CO",
      "variables": [
        {
          "name": "STUDYID",
          "label": "Study Identifier",
          "type": "Char",
          "length": 50
        },
        {
          "name": "DOMAIN",
          "label": "Domain Abbreviation",
          "type": "Char",
          "length": 50
        },
        {
          "name": "RDOMAIN",
          "label": "Related Domain Abbreviation",
          "type": "Char",
          "length": 50
        },
        {
          "name": "USUBJID",
          "label": "Unique Subject Identifier",
          "type": "Char",
          "length": 50
        },
        {
          "name": "COSEQ",
          "label": "Sequence Number",
          "type": "Num",
          "length": 8
        },
        {
          "name": "IDVAR",
          "label": "Identifying Variable",
          "type": "Char",
          "length": 50
        },
        {
          "name": "IDVARVAL",
          "label": "Identifying Variable Value",
          "type": "Char",
          "length": 50
        },
        {
          "name": "COREF",
          "label": "Comment Reference",
          "type": "Char",
          "length": 50
        },
        {
          "name": "COVAL",
          "label": "Comment",
          "type": "Char",
          "length": 50
        },
        {
          "name": "COVAL1",
          "label": "Comment",
          "type": "Char",
          "length": 50
        },
        {
          "name": "COVAL2",
          "label": "Comment",
          "type": "Char",
          "length": 50
        },
        {
          "name": "COEVAL",
          "label": "Evaluator",
          "type": "Char",
          "length": 50
        },
        {
          "name": "VISITNUM",
          "label": "Visitnumber",
          "type": "Num",
          "length": 8
        },
        {
          "name": "CODTC",
          "label": "Date/Time of Comment",
          "type": "Char",
          "length": 50
        },
        {
          "name": "CODY",
          "label": "Study Day of Comment",
          "type": "Num",
          "length": 8
        }
      ],
      "records": {
        "STUDYID": [
          "1234",
          "1234",
          "1234"
        ],
        "DOMAIN": [
          "CO",
          "CO",
          "CO"
        ],
        "RDOMAIN": [
          "EX",
          "PE",
          "LB"
        ],
        "USUBJID": [
          "ZZ-23",
          "XX-11",
          "XX-11"
        ],
        "COSEQ": [
          4,
          6,
          6
        ],
        "IDVAR": [
          "EXGRPID",
          "VISITNUM",
          "LBLOINC"
        ],
        "IDVARVAL": [
          "COMBO1",
          "4",
          "comment with variable"
        ],
        "COREF": [
          "PAGE 320-355",
          "",
          ""
        ],
        "COVAL": [
          "Medicine was administered under supervision of Sub investigator as PI was on leave",
          "Visit was delayed by a day due to hospital holiday",
          "Visit was delayed by a day due to hospital holiday"
        ],
        "COVAL1": [
          "",
          "",
          ""
        ],
        "COVAL2": [
          "",
          "",
          ""
        ],
        "COEVAL": [
          "PRINCIPAL INVESTIGATOR",
          "PRINCIPAL INVESTIGATOR",
          "PRINCIPAL INVESTIGATOR"
        ],
        "VISITNUM": [
          null,
          null,
          null
        ],
        "CODTC": [
          "",
          "",
          ""
        ],
        "CODY": [
          null,
          null,
          null
        ]
      }
    }
  ],
  "codelists": []
}