STUDYID,RDOMAIN,USUBJID,IDVAR,IDVARVAL,QNAM,QLABEL,QVAL,QORIG,QEVAL
CDISCPILOT01,AE,CDISC001,AESEQ,1,AESEV2,Severity/Intensity 2,MILD,CRF,
CDISCPILOT01,AE,CDISC002,AESEQ,2,AESPI,Adverse Event Special Interest,N,CRF,
