STUDYID ,DOMAIN ,USUBJID,EXSEQ ,EXTRT,EXDOSE,EXDOSU,EXDOSFRM,EXDOSFRQ,EXROUTE,EXLOT,RPHASE,RPPLSTDY,EXSTDTC
EFD111 ,EX,EFD111-0001 ,1,DRUG A,1,mg,POWDER,,ORAL,,GESTATION ,1,2023-01-01 00:00:00
EFD111 ,EX,EFD111-0001 ,2,DRUG A,1,mg,POWDER,,ORAL,,GESTATION ,2,2023-01-02 00:00:00
EFD111 ,EX,EFD111-0001 ,3,DRUG A,1,mg,POWDER,,ORAL,,GESTATION ,3,2023-01-03 00:00:00
EFD111 ,EX,EFD111-0001 ,4,DRUG A,1,mg,POWDER,,ORAL,,GESTATION ,4,2023-01-04 00:00:00
EFD111 ,EX,EFD111-0001 ,5,DRUG A,1,mg,POWDER,,ORAL,,GESTATION ,5,2023-01-05 00:00:00
