STUDYID,DOMAIN,USUBJID,AGSEQ,AGTRT,AGPRESP,AGOCCUR,AGDOSE,AGDOSTXT,AGDOSU,AGROUTE,VISIT,AGENDTC
XYZ,AG,XYZ-001-001,1,SALINE,Y,Y,,0,SQ-u/mL,RESPIRATORY (INHALATION),SCREENING,2010-11-07T10:56:00
XYZ,AG,XYZ-001-001,2,GRASS,Y,Y,,250,SQ-u/mL,RESPIRATORY (INHALATION),SCREENING,2010-11-07T11:19:00
XYZ,AG,XYZ-001-001,3,GRASS,Y,Y,,1000,SQ-u/mL,RESPIRATORY (INHALATION),SCREENING,2010-11-07T11:43:00
XYZ,AG,XYZ-001-001,4,GRASS,Y,Y,,2000,SQ-u/mL,RESPIRATORY (INHALATION),SCREENING,2010-11-07T12:06:00
