STUDYID,DOMAIN,USUBJID,SUBJID,RFSTDTC,RFENDTC,RFXSTDTC,RFXENDTC,RFICDTC,RFPENDTC,DTHDTC,DTHFL,SITEID,BRTHDTC,AGE,AGEU,SEX,RACE,ETHNIC,ARMCD,ARM,ACTARMCD,ACTARM,ARMNRS,ACTARMUD,COUNTRY
CDISCCORE01,DM,015246-076-0003-00003,076000300003,2018-04-02T11:32,2019-02-19T10:55,2018-04-02T11:32,2019-02-19T10:55,2018-03-06,2021-02-18,2021-02-18,Y,0760003,1940-01-14,78,YEARS,F,WHITE,HISPANIC OR LATINO,IKD,IKd,20 CHARACTERS,IKd,,,BRA
CDISCCORE01,DM,015246-203-0003-00001,203000300001,2017-12-27T16:15,2021-08-20,2017-12-27T16:15,2021-08-20,2017-12-06,2021-11-25,2021-11-25,Y,2030003,1946-09-13,71,YEARS,F,WHITE,NOT HISPANIC OR LATINO,IKD,IKd,20 CHARACTERS,IKd,,,CZE
CDISCCORE01,DM,015246-300-0004-00002,300000400002,2018-05-08T11:20,2018-08-29T10:35,2018-05-08T11:20,2018-08-29T10:35,2018-04-17,2018-09-04,2018-09-04,Y,3000004,1947-12-23,70,YEARS,F,WHITE,NOT HISPANIC OR LATINO,IKD,IKd,20 CHARACTERS,IKd,,,GRC
CDISCCORE01,DM,015246-036-0002-00004,036000200004,,,,,2018-04-16,2018-05-04,,,0360002,1940-08-14,77,YEARS,M,WHITE,NOT HISPANIC OR LATINO,,,20 CHARACTERS,IKd,SCREEN FAILURE,,AUS
