{
    "rule": {
        "Authorities": [
            {
                "Organization": "CDISC",
                "Standards": [
                    {
                        "Name": "SDTMIG",
                        "References": [
                            {
                                "Citations": [
                                    {
                                        "Document": "SDTM v1.4",
                                        "Section": "4.1.5",
                                        "Cited_Guidance": "When the study does not include the data item for an expected variable, however, a null column must still be included in the dataset, and a comment must be included in the Define-XML document to state that the study does not include the data item."
                                    }
                                ],
                                "Origin": "SDTM and SDTMIG Conformance Rules",
                                "Version": "2.0",
                                "Rule_Identifier": {
                                    "Id": "CG0016",
                                    "Version": "1"
                                }
                            }
                        ],
                        "Version": "3.4"
                    },
                    {
                        "Name": "SDTMIG",
                        "References": [
                            {
                                "Citations": [
                                    {
                                        "Document": "IG v3.3",
                                        "Section": "4.1.5",
                                        "Cited_Guidance": "When no data has been collected for an expected variable, however, a null column must still be included in the dataset, and a comment must be included in the define.xml to state that data was not collected."
                                    }
                                ],
                                "Origin": "SDTM and SDTMIG Conformance Rules",
                                "Version": "2.0",
                                "Rule_Identifier": {
                                    "Id": "CG0016",
                                    "Version": "1"
                                }
                            }
                        ],
                        "Version": "3.3"
                    },
                    {
                        "Name": "SDTMIG",
                        "References": [
                            {
                                "Citations": [
                                    {
                                        "Document": "IG v3.2",
                                        "Section": "4.1.1.5",
                                        "Cited_Guidance": "When no data has been collected for an expected variable however, a null column must still be included in the dataset, and a comment must be included in the define.xml to state that data was not collected."
                                    }
                                ],
                                "Origin": "SDTM and SDTMIG Conformance Rules",
                                "Version": "2.0",
                                "Rule_Identifier": {
                                    "Id": "CG0016",
                                    "Version": "1"
                                }
                            }
                        ],
                        "Version": "3.2"
                    },
                    {
                        "Name": "TIG",
                        "References": [
                            {
                                "Citations": [
                                    {
                                        "Document": "TIG v1.0",
                                        "Item": "Table 2 Num",
                                        "Section": "2.5.",
                                        "Cited_Guidance": "All Required and Expected tabulation variables are included as columns"
                                    }
                                ],
                                "Origin": "TIG Conformance Rules",
                                "Version": "1.0",
                                "Rule_Identifier": {
                                    "Id": "TIG0301",
                                    "Version": "1"
                                }
                            }
                        ],
                        "Substandard": "SDTM",
                        "Version": "1.0"
                    },
                    {
                        "Name": "SENDIG",
                        "References": [
                            {
                                "Citations": [
                                    {
                                        "Document": "IG v3.0",
                                        "Section": "4.1.3",
                                        "Cited_Guidance": "Columns for Expected variables must be present in each submitted dataset even if all values are null"
                                    }
                                ],
                                "Origin": "SEND Conformance Rules",
                                "Version": "5.0",
                                "Rule_Identifier": {
                                    "Id": "SEND13",
                                    "Version": "1"
                                }
                            }
                        ],
                        "Version": "3.0"
                    },
                    {
                        "Name": "SENDIG",
                        "References": [
                            {
                                "Citations": [
                                    {
                                        "Document": "IG v3.1",
                                        "Section": "4.1.3",
                                        "Cited_Guidance": "Columns for Expected variables must be present in each submitted dataset even if all values are null"
                                    }
                                ],
                                "Origin": "SEND Conformance Rules",
                                "Version": "5.0",
                                "Rule_Identifier": {
                                    "Id": "SEND13",
                                    "Version": "1"
                                }
                            }
                        ],
                        "Version": "3.1"
                    },
                    {
                        "Name": "SENDIG",
                        "References": [
                            {
                                "Citations": [
                                    {
                                        "Document": "IG v3.1.1",
                                        "Section": "4.1.3",
                                        "Cited_Guidance": "Columns for Expected variables must be present in each submitted dataset even if all values are null"
                                    }
                                ],
                                "Origin": "SEND Conformance Rules",
                                "Version": "5.0",
                                "Rule_Identifier": {
                                    "Id": "SEND13",
                                    "Version": "1"
                                }
                            }
                        ],
                        "Version": "3.1.1"
                    },
                    {
                        "Name": "TIG",
                        "References": [
                            {
                                "Citations": [
                                    {
                                        "Document": "TIG v1.0",
                                        "Item": "Table Row 7",
                                        "Section": "2.8.1 How to Read Domain Specifications",
                                        "Cited_Guidance": "Exp for variables which are Expected to be included in the resulting dataset, even if all values are null. Such variables are considered necessary to make the data record useful in the context of the domain."
                                    }
                                ],
                                "Origin": "TIG Conformance Rules",
                                "Version": "1.0",
                                "Rule_Identifier": {
                                    "Id": "TIG0065",
                                    "Version": "1"
                                }
                            }
                        ],
                        "Substandard": "SEND",
                        "Version": "1.0"
                    }
                ]
            }
        ],
        "Check": {
            "all": [
                {
                    "name": "variable_name",
                    "operator": "not_contains_all",
                    "value": [
                        "$expected_variables"
                    ]
                }
            ]
        },
        "Core": {
            "Id": "CORE-000334",
            "Status": "Published",
            "Version": "1"
        },
        "Description": "Raise an error when an expected variable is not present in the dataset.",
        "Executability": "Fully Executable",
        "Operations": [
            {
                "id": "$expected_variables",
                "operator": "expected_variables"
            },
            {
                "id": "$dataset_variables",
                "operator": "get_column_order_from_dataset"
            }
        ],
        "Outcome": {
            "Message": "At least one expected variable is missing from dataset",
            "Output_Variables": [
                "$dataset_variables",
                "$expected_variables"
            ]
        },
        "Scope": {
            "Classes": {
                "Include": [
                    "ALL"
                ]
            },
            "Domains": {
                "Include": [
                    "ALL"
                ]
            },
            "Use_Case": "INDH, PROD, NONCLIN"
        },
        "Sensitivity": "Dataset",
        "Rule_Type": "Variable Metadata Check"
    },
    "datasets": [
        {
            "filename": "ae.xpt",
            "label": "Adverse Events",
            "domain": "AE",
            "variables": [
                {
                    "name": "STUDYID",
                    "label": "Study Identifier",
                    "type": "Char",
                    "length": 12
                },
                {
                    "name": "DOMAIN",
                    "label": "Domain Abbreviation",
                    "type": "Char",
                    "length": 2
                },
                {
                    "name": "USUBJID",
                    "label": "Unique Subject Identifier",
                    "type": "Char",
                    "length": 8
                },
                {
                    "name": "AESEQ",
                    "label": "Sequence Number",
                    "type": "Num",
                    "length": 8
                },
                {
                    "name": "AELNKID",
                    "label": "Link ID",
                    "type": "Char",
                    "length": 50
                },
                {
                    "name": "AETERM",
                    "label": "Reported Term for the Adverse Event",
                    "type": "Char",
                    "length": 200
                },
                {
                    "name": "AELLT",
                    "label": "Lowest Level Term",
                    "type": "Char",
                    "length": 1
                },
                {
                    "name": "AELLTCD",
                    "label": "Lowest Level Term Code",
                    "type": "Char",
                    "length": 1
                },
                {
                    "name": "AEDECOD",
                    "label": "Dictionary-Derived Term",
                    "type": "Char",
                    "length": 1
                },
                {
                    "name": "AEPTCD",
                    "label": "Preferred Term Code",
                    "type": "Char",
                    "length": 1
                },
                {
                    "name": "AEHLT",
                    "label": "High Level Term",
                    "type": "Char",
                    "length": 1
                },
                {
                    "name": "AEHLTCD",
                    "label": "High Level Term Code",
                    "type": "Char",
                    "length": 1
                },
                {
                    "name": "AEHLGT",
                    "label": "High Level Group Term",
                    "type": "Char",
                    "length": 1
                },
                {
                    "name": "AEHLGTCD",
                    "label": "High Level Group Term Code",
                    "type": "Char",
                    "length": 1
                },
                {
                    "name": "AEBODSYS",
                    "label": "Body System or Organ Class",
                    "type": "Char",
                    "length": 1
                },
                {
                    "name": "AEBDSYCD",
                    "label": "Body System or Organ Class Code",
                    "type": "Char",
                    "length": 1
                },
                {
                    "name": "AESOC",
                    "label": "Primary System Organ Class",
                    "type": "Char",
                    "length": 1
                },
                {
                    "name": "AESOCCD",
                    "label": "Primary System Organ Class Code",
                    "type": "Char",
                    "length": 1
                },
                {
                    "name": "AESEV",
                    "label": "Severity/Intensity",
                    "type": "Char",
                    "length": 8
                },
                {
                    "name": "AESER",
                    "label": "Serious Event",
                    "type": "Char",
                    "length": 1
                },
                {
                    "name": "AEACN",
                    "label": "Action Taken with Study Treatment",
                    "type": "Char",
                    "length": 16
                },
                {
                    "name": "AEREL",
                    "label": "Causality",
                    "type": "Char",
                    "length": 16
                },
                {
                    "name": "AEOUT",
                    "label": "Outcome of Adverse Event",
                    "type": "Char",
                    "length": 32
                },
                {
                    "name": "AESCAN",
                    "label": "Involves Cancer",
                    "type": "Char",
                    "length": 1
                },
                {
                    "name": "AESCONG",
                    "label": "Congenital Anomaly or Birth Defect",
                    "type": "Char",
                    "length": 1
                },
                {
                    "name": "AESDISAB",
                    "label": "Persist or Signif Disability/Incapacity",
                    "type": "Char",
                    "length": 1
                },
                {
                    "name": "AESDTH",
                    "label": "Results in Death",
                    "type": "Char",
                    "length": 1
                },
                {
                    "name": "AESHOSP",
                    "label": "Requires or Prolongs Hospitalization",
                    "type": "Char",
                    "length": 1
                },
                {
                    "name": "AESLIFE",
                    "label": "Is Life Threatening",
                    "type": "Char",
                    "length": 1
                },
                {
                    "name": "AESOD",
                    "label": "Occurred with Overdose",
                    "type": "Char",
                    "length": 1
                },
                {
                    "name": "EPOCH",
                    "label": "Epoch",
                    "type": "Char",
                    "length": 9
                },
                {
                    "name": "AESTDTC",
                    "label": "Start Date/Time of Adverse Event",
                    "type": "Char",
                    "length": 10
                },
                {
                    "name": "AEENDTC",
                    "label": "End Date/Time of Adverse Event",
                    "type": "Char",
                    "length": 10
                },
                {
                    "name": "AESTDY",
                    "label": "Study Day of Start of Adverse Event",
                    "type": "Num",
                    "length": 8
                },
                {
                    "name": "AEENDY",
                    "label": "Study Day of End of Adverse Event",
                    "type": "Num",
                    "length": 8
                },
                {
                    "name": "AEENRTPT",
                    "label": "End Relative to Reference Time Point",
                    "type": "Char",
                    "length": 7
                },
                {
                    "name": "AEENTPT",
                    "label": "End Reference Time Point",
                    "type": "Char",
                    "length": 10
                }
            ],
            "records": {
                "STUDYID": [
                    "CDISCPILOT01",
                    "CDISCPILOT01",
                    "CDISCPILOT01",
                    "CDISCPILOT01"
                ],
                "DOMAIN": [
                    "AE",
                    "AE",
                    "AE",
                    "AE"
                ],
                "USUBJID": [
                    "CDISC001",
                    "CDISC001",
                    "CDISC002",
                    "CDISC002"
                ],
                "AESEQ": [
                    1,
                    2,
                    1,
                    2
                ],
                "AELNKID": [
                    "1",
                    "2",
                    "1",
                    "2"
                ],
                "AETERM": [
                    "INJECTION SITE REACTION",
                    "FATIGUE",
                    "INJECTION SITE REACTION",
                    "SHOULDER PAIN"
                ],
                "AELLT": [
                    "",
                    "",
                    "",
                    ""
                ],
                "AELLTCD": [
                    "",
                    "",
                    "",
                    ""
                ],
                "AEDECOD": [
                    "",
                    "",
                    "",
                    ""
                ],
                "AEPTCD": [
                    "",
                    "",
                    "",
                    ""
                ],
                "AEHLT": [
                    "",
                    "",
                    "",
                    ""
                ],
                "AEHLTCD": [
                    "",
                    "",
                    "",
                    ""
                ],
                "AEHLGT": [
                    "",
                    "",
                    "",
                    ""
                ],
                "AEHLGTCD": [
                    "",
                    "",
                    "",
                    ""
                ],
                "AEBODSYS": [
                    "",
                    "",
                    "",
                    ""
                ],
                "AEBDSYCD": [
                    "",
                    "",
                    "",
                    ""
                ],
                "AESOC": [
                    "",
                    "",
                    "",
                    ""
                ],
                "AESOCCD": [
                    "",
                    "",
                    "",
                    ""
                ],
                "AESEV": [
                    "MODERATE",
                    "MODERATE",
                    "MILD",
                    "MILD"
                ],
                "AESER": [
                    "N",
                    "N",
                    "N",
                    "N"
                ],
                "AEACN": [
                    "DRUG WITHDRAWN",
                    "DOSE NOT CHANGED",
                    "DOSE NOT CHANGED",
                    "DOSE NOT CHANGED"
                ],
                "AEREL": [
                    "RELATED",
                    "UNLIKELY RELATED",
                    "POSSIBLY RELATED",
                    "NOT RELATED"
                ],
                "AEOUT": [
                    "NOT RECOVERED/NOT RESOLVED",
                    "NOT RECOVERED/NOT RESOLVED",
                    "NOT RECOVERED/NOT RESOLVED",
                    "NOT RECOVERED/NOT RESOLVED"
                ],
                "AESCAN": [
                    "N",
                    "N",
                    "N",
                    "N"
                ],
                "AESCONG": [
                    "N",
                    "N",
                    "N",
                    "N"
                ],
                "AESDISAB": [
                    "N",
                    "N",
                    "N",
                    "N"
                ],
                "AESDTH": [
                    "N",
                    "N",
                    "N",
                    "N"
                ],
                "AESHOSP": [
                    "N",
                    "N",
                    "N",
                    "N"
                ],
                "AESLIFE": [
                    "N",
                    "N",
                    "N",
                    "N"
                ],
                "AESOD": [
                    "N",
                    "N",
                    "N",
                    "N"
                ],
                "EPOCH": [
                    "TREATMENT",
                    "TREATMENT",
                    "TREATMENT",
                    "TREATMENT"
                ],
                "AESTDTC": [
                    "2012-12-02",
                    "2013-01-14",
                    "2012-11-16",
                    "2012-11-21"
                ],
                "AEENDTC": [
                    "",
                    "",
                    "",
                    ""
                ],
                "AESTDY": [
                    3,
                    46,
                    2,
                    7
                ],
                "AEENDY": [
                    null,
                    null,
                    null,
                    null
                ],
                "AEENRTPT": [
                    "ONGOING",
                    "ONGOING",
                    "ONGOING",
                    "ONGOING"
                ],
                "AEENTPT": [
                    "2013-05-20",
                    "2013-05-20",
                    "2013-01-14",
                    "2013-01-14"
                ]
            }
        },
        {
            "filename": "ex.xpt",
            "label": "Exposure",
            "domain": "EX",
            "variables": [
                {
                    "name": "STUDYID",
                    "label": "Study Identifier",
                    "type": "Char",
                    "length": 12
                },
                {
                    "name": "DOMAIN",
                    "label": "Domain Abbreviation",
                    "type": "Char",
                    "length": 2
                },
                {
                    "name": "USUBJID",
                    "label": "Unique Subject Identifier",
                    "type": "Char",
                    "length": 8
                },
                {
                    "name": "SPDEVID",
                    "label": "Sponsor Device Identifier",
                    "type": "Char",
                    "length": 200
                },
                {
                    "name": "EXSEQ",
                    "label": "Sequence Number",
                    "type": "Num",
                    "length": 8
                },
                {
                    "name": "EXTRT",
                    "label": "Name of Treatment",
                    "type": "Char",
                    "length": 10
                },
                {
                    "name": "EXDOSE",
                    "label": "Dose",
                    "type": "Num",
                    "length": 8
                },
                {
                    "name": "EXDOSU",
                    "label": "Dose Units",
                    "type": "Char",
                    "length": 2
                },
                {
                    "name": "EXDOSFRM",
                    "label": "Dose Form",
                    "type": "Char",
                    "length": 9
                },
                {
                    "name": "EXDOSFRQ",
                    "label": "Dosing Frequency per Interval",
                    "type": "Char",
                    "length": 2
                },
                {
                    "name": "EXROUTE",
                    "label": "Route of Administration",
                    "type": "Char",
                    "length": 12
                },
                {
                    "name": "EXLOT",
                    "label": "Lot Number",
                    "type": "Char",
                    "length": 200
                },
                {
                    "name": "EPOCH",
                    "label": "Epoch",
                    "type": "Char",
                    "length": 9
                },
                {
                    "name": "EXSTDTC",
                    "label": "Start Date/Time of Treatment",
                    "type": "Char",
                    "length": 10
                },
                {
                    "name": "EXENDTC",
                    "label": "End Date/Time of Treatment",
                    "type": "Char",
                    "length": 10
                },
                {
                    "name": "EXSTDY",
                    "label": "Study Day of Start of Treatment",
                    "type": "Num",
                    "length": 8
                },
                {
                    "name": "EXENDY",
                    "label": "Study Day of End of Treatment",
                    "type": "Num",
                    "length": 8
                }
            ],
            "records": {
                "STUDYID": [
                    "CDISCPILOT01",
                    "CDISCPILOT01",
                    "CDISCPILOT01",
                    "CDISCPILOT01",
                    "CDISCPILOT01",
                    "CDISCPILOT01",
                    "CDISCPILOT01"
                ],
                "DOMAIN": [
                    "EX",
                    "EX",
                    "EX",
                    "EX",
                    "EX",
                    "EX",
                    "EX"
                ],
                "USUBJID": [
                    "CDISC001",
                    "CDISC001",
                    "CDISC001",
                    "CDISC001",
                    "CDISC001",
                    "CDISC001",
                    "CDISC001"
                ],
                "SPDEVID": [
                    "DEV0001",
                    "DEV0001",
                    "DEV0001",
                    "DEV0001",
                    "DEV0001",
                    "DEV0001",
                    "DEV0001"
                ],
                "EXSEQ": [
                    1,
                    2,
                    3,
                    4,
                    5,
                    6,
                    7
                ],
                "EXTRT": [
                    "ZANOMALINE",
                    "ZANOMALINE",
                    "ZANOMALINE",
                    "ZANOMALINE",
                    "ZANOMALINE",
                    "ZANOMALINE",
                    "ZANOMALINE"
                ],
                "EXDOSE": [
                    54,
                    54,
                    54,
                    54,
                    54,
                    54,
                    54
                ],
                "EXDOSU": [
                    "mg",
                    "mg",
                    "mg",
                    "mg",
                    "mg",
                    "mg",
                    "mg"
                ],
                "EXDOSFRM": [
                    "INJECTION",
                    "INJECTION",
                    "INJECTION",
                    "INJECTION",
                    "INJECTION",
                    "INJECTION",
                    "INJECTION"
                ],
                "EXDOSFRQ": [
                    "QD",
                    "QD",
                    "QD",
                    "QD",
                    "QD",
                    "QD",
                    "QD"
                ],
                "EXROUTE": [
                    "SUBCUTANEOUS",
                    "SUBCUTANEOUS",
                    "SUBCUTANEOUS",
                    "SUBCUTANEOUS",
                    "SUBCUTANEOUS",
                    "SUBCUTANEOUS",
                    "SUBCUTANEOUS"
                ],
                "EXLOT": [
                    "SDS580-359",
                    "SDS580-359",
                    "SDS580-359",
                    "SDS580-359",
                    "SDS580-359",
                    "SDS580-359",
                    "SDS580-359"
                ],
                "EPOCH": [
                    "TREATMENT",
                    "TREATMENT",
                    "TREATMENT",
                    "TREATMENT",
                    "TREATMENT",
                    "TREATMENT",
                    "TREATMENT"
                ],
                "EXSTDTC": [
                    "2012-11-30",
                    "2012-12-01",
                    "2012-12-02",
                    "2012-12-03",
                    "2012-12-04",
                    "2012-12-05",
                    "2012-12-06"
                ],
                "EXENDTC": [
                    "2012-11-30",
                    "2012-12-01",
                    "2012-12-02",
                    "2012-12-03",
                    "2012-12-04",
                    "2012-12-05",
                    "2012-12-06"
                ],
                "EXSTDY": [
                    1,
                    2,
                    3,
                    4,
                    5,
                    6,
                    7
                ],
                "EXENDY": [
                    1,
                    2,
                    3,
                    4,
                    5,
                    6,
                    7
                ]
            }
        },
        {
            "filename": "lb.xpt",
            "label": "Laboratory Test Results",
            "domain": "LB",
            "variables": [
                {
                    "name": "STUDYID",
                    "label": "Study Identifier",
                    "type": "Char",
                    "length": 12
                },
                {
                    "name": "DOMAIN",
                    "label": "Domain Abbreviation",
                    "type": "Char",
                    "length": 2
                },
                {
                    "name": "USUBJID",
                    "label": "Unique Subject Identifier",
                    "type": "Char",
                    "length": 8
                },
                {
                    "name": "LBSEQ",
                    "label": "Sequence Number",
                    "type": "Num",
                    "length": 8
                },
                {
                    "name": "LBTESTCD",
                    "label": "Lab Test or Examination Short Name",
                    "type": "Char",
                    "length": 7
                },
                {
                    "name": "LBTEST",
                    "label": "Lab Test or Examination Name",
                    "type": "Char",
                    "length": 39
                },
                {
                    "name": "LBCAT",
                    "label": "Category for Lab Test",
                    "type": "Char",
                    "length": 10
                },
                {
                    "name": "LBORRES",
                    "label": "Result or Finding in Original Units",
                    "type": "Char",
                    "length": 6
                },
                {
                    "name": "LBORRESU",
                    "label": "Original Units",
                    "type": "Char",
                    "length": 7
                },
                {
                    "name": "LBORNRLO",
                    "label": "Reference Range Lower Limit in Orig Unit",
                    "type": "Char",
                    "length": 200
                },
                {
                    "name": "LBORNRHI",
                    "label": "Reference Range Upper Limit in Orig Unit",
                    "type": "Char",
                    "length": 200
                },
                {
                    "name": "LBSTRESC",
                    "label": "Character Result/Finding in Std Format",
                    "type": "Char",
                    "length": 8
                },
                {
                    "name": "LBSTRESN",
                    "label": "Numeric Result/Finding in Standard Units",
                    "type": "Num",
                    "length": 8
                },
                {
                    "name": "LBSTRESU",
                    "label": "Standard Units",
                    "type": "Char",
                    "length": 7
                },
                {
                    "name": "LBSTNRLO",
                    "label": "Reference Range Lower Limit-Std Units",
                    "type": "Num",
                    "length": 8
                },
                {
                    "name": "LBSTNRHI",
                    "label": "Reference Range Upper Limit-Std Units",
                    "type": "Num",
                    "length": 8
                },
                {
                    "name": "LBNRIND",
                    "label": "Reference Range Indicator",
                    "type": "Char",
                    "length": 8
                },
                {
                    "name": "LBLOBXFL",
                    "label": "Last Observation Before Exposure Flag",
                    "type": "Char",
                    "length": 1
                },
                {
                    "name": "VISITNUM",
                    "label": "Visit Number",
                    "type": "Num",
                    "length": 8
                },
                {
                    "name": "VISIT",
                    "label": "Visit Name",
                    "type": "Char",
                    "length": 200
                },
                {
                    "name": "EPOCH",
                    "label": "Epoch",
                    "type": "Char",
                    "length": 9
                },
                {
                    "name": "LBDTC",
                    "label": "Date/Time of Specimen Collection",
                    "type": "Char",
                    "length": 19
                },
                {
                    "name": "LBDY",
                    "label": "Study Day of Specimen Collection",
                    "type": "Num",
                    "length": 8
                }
            ],
            "records": {
                "STUDYID": [
                    "CDISCPILOT01",
                    "CDISCPILOT01",
                    "CDISCPILOT01",
                    "CDISCPILOT01",
                    "CDISCPILOT01",
                    "CDISCPILOT01"
                ],
                "DOMAIN": [
                    "LB",
                    "LB",
                    "LB",
                    "LB",
                    "LB",
                    "LB"
                ],
                "USUBJID": [
                    "CDISC001",
                    "CDISC001",
                    "CDISC001",
                    "CDISC001",
                    "CDISC001",
                    "CDISC001"
                ],
                "LBSEQ": [
                    1,
                    2,
                    3,
                    4,
                    5,
                    6
                ],
                "LBTESTCD": [
                    "ALB",
                    "ALP",
                    "ALT",
                    "AST",
                    "BASO",
                    "BILI"
                ],
                "LBTEST": [
                    "Albumin",
                    "Alkaline Phosphatase",
                    "Alanine Aminotransferase",
                    "Aspartate Aminotransferase",
                    "Basophils",
                    "Bilirubin"
                ],
                "LBCAT": [
                    "CHEMISTRY",
                    "CHEMISTRY",
                    "CHEMISTRY",
                    "CHEMISTRY",
                    "HEMATOLOGY",
                    "CHEMISTRY"
                ],
                "LBORRES": [
                    "3.9",
                    "93",
                    "18",
                    "26",
                    "0.03",
                    "0.5"
                ],
                "LBORRESU": [
                    "g/dL",
                    "U/L",
                    "U/L",
                    "U/L",
                    "10^9/L",
                    "mg/dL"
                ],
                "LBORNRLO": [
                    "3.5",
                    "35",
                    "6",
                    "11",
                    "0",
                    "0.2"
                ],
                "LBORNRHI": [
                    "4.6",
                    "115",
                    "35",
                    "36",
                    "0.2",
                    "1.2"
                ],
                "LBSTRESC": [
                    "39",
                    "93",
                    "18",
                    "26",
                    "0.03",
                    "8.55"
                ],
                "LBSTRESN": [
                    39,
                    93,
                    18,
                    26,
                    0.03,
                    8.549999999999999
                ],
                "LBSTRESU": [
                    "g/L",
                    "U/L",
                    "U/L",
                    "U/L",
                    "10^9/L",
                    "umol/L"
                ],
                "LBSTNRLO": [
                    35,
                    35,
                    6,
                    11,
                    0,
                    3
                ],
                "LBSTNRHI": [
                    46,
                    115,
                    35,
                    36,
                    0.2,
                    21
                ],
                "LBNRIND": [
                    "NORMAL",
                    "NORMAL",
                    "NORMAL",
                    "NORMAL",
                    "NORMAL",
                    "NORMAL"
                ],
                "LBLOBXFL": [
                    "Y",
                    "Y",
                    "Y",
                    "Y",
                    "Y",
                    "Y"
                ],
                "VISITNUM": [
                    1,
                    1,
                    1,
                    1,
                    1,
                    1
                ],
                "VISIT": [
                    "SCREENING 1",
                    "SCREENING 1",
                    "SCREENING 1",
                    "SCREENING 1",
                    "SCREENING 1",
                    "SCREENING 1"
                ],
                "EPOCH": [
                    "SCREENING",
                    "SCREENING",
                    "SCREENING",
                    "SCREENING",
                    "SCREENING",
                    "SCREENING"
                ],
                "LBDTC": [
                    "2012-11-23T11:20",
                    "2012-11-23T11:20",
                    "2012-11-23T11:20",
                    "2012-11-23T11:20",
                    "2012-11-23T11:20",
                    "2012-11-23T11:20"
                ],
                "LBDY": [
                    -7,
                    -7,
                    -7,
                    -7,
                    -7,
                    -7
                ]
            }
        },
        {
            "filename": "suppae.xpt",
            "label": "Supplemental Qualifiers for AE",
            "domain": "SUPPAE",
            "variables": [
                {
                    "name": "STUDYID",
                    "label": "Study Identifier",
                    "type": "Char",
                    "length": 10
                },
                {
                    "name": "RDOMAIN",
                    "label": "Related Domain Abbreviation",
                    "type": "Char",
                    "length": 2
                },
                {
                    "name": "USUBJID",
                    "label": "Unique Subject Identifier",
                    "type": "Char",
                    "length": 14
                },
                {
                    "name": "IDVAR",
                    "label": "Identifying Variable",
                    "type": "Char",
                    "length": 6
                },
                {
                    "name": "IDVARVAL",
                    "label": "Identifying Variable Value",
                    "type": "Char",
                    "length": 4
                },
                {
                    "name": "QNAM",
                    "label": "Qualifier Variable Name",
                    "type": "Char",
                    "length": 7
                },
                {
                    "name": "QLABEL",
                    "label": "Qualifier Variable Label",
                    "type": "Char",
                    "length": 40
                },
                {
                    "name": "QVAL",
                    "label": "Data Value",
                    "type": "Char",
                    "length": 19
                },
                {
                    "name": "QORIG",
                    "label": "Origin",
                    "type": "Char",
                    "length": 8
                },
                {
                    "name": "QEVAL",
                    "label": "Evaluator",
                    "type": "Char",
                    "length": 22
                }
            ],
            "records": {
                "STUDYID": [
                    "CDISC-TEST",
                    "CDISC-TEST",
                    "CDISC-TEST",
                    "CDISC-TEST",
                    "CDISC-TEST",
                    "CDISC-TEST",
                    "CDISC-TEST"
                ],
                "RDOMAIN": [
                    "AE",
                    "AE",
                    "AE",
                    "AE",
                    "AE",
                    "AE",
                    "AE"
                ],
                "USUBJID": [
                    "CDISC-TEST-001",
                    "CDISC-TEST-001",
                    "CDISC-TEST-001",
                    "CDISC-TEST-001",
                    "CDISC-TEST-001",
                    "CDISC-TEST-001",
                    "CDISC-TEST-001"
                ],
                "IDVAR": [
                    "AESPID",
                    "AESPID",
                    "AESPID",
                    "AESPID",
                    "AESPID",
                    "AESPID",
                    "AESPID"
                ],
                "IDVARVAL": [
                    "1",
                    "10",
                    "11",
                    "12",
                    "13",
                    "14",
                    "15"
                ],
                "QNAM": [
                    "DICTVER",
                    "DICTVER",
                    "DICTVER",
                    "DICTVER",
                    "DICTVER",
                    "DICTVER",
                    "DICTVER"
                ],
                "QLABEL": [
                    "Dictionary Version",
                    "Dictionary Version",
                    "Dictionary Version",
                    "Dictionary Version",
                    "Dictionary Version",
                    "Dictionary Version",
                    "Dictionary Version"
                ],
                "QVAL": [
                    "MEDDRA VERSION 22.0",
                    "MEDDRA VERSION 22.0",
                    "MEDDRA VERSION 22.0",
                    "MEDDRA VERSION 22.0",
                    "MEDDRA VERSION 22.0",
                    "MEDDRA VERSION 22.0",
                    "MEDDRA VERSION 22.0"
                ],
                "QORIG": [
                    "Assigned",
                    "Assigned",
                    "Assigned",
                    "Assigned",
                    "Assigned",
                    "Assigned",
                    "Assigned"
                ],
                "QEVAL": [
                    "CLINICAL STUDY SPONSOR",
                    "CLINICAL STUDY SPONSOR",
                    "CLINICAL STUDY SPONSOR",
                    "CLINICAL STUDY SPONSOR",
                    "CLINICAL STUDY SPONSOR",
                    "CLINICAL STUDY SPONSOR",
                    "CLINICAL STUDY SPONSOR"
                ]
            }
        },
        {
            "filename": "ta.xpt",
            "label": "Trial Arms",
            "domain": "TA",
            "variables": [
                {
                    "name": "STUDYID",
                    "label": "Study Identifier",
                    "type": "Char",
                    "length": 12
                },
                {
                    "name": "DOMAIN",
                    "label": "Domain Abbreviation",
                    "type": "Char",
                    "length": 2
                },
                {
                    "name": "ARMCD",
                    "label": "Planned Arm Code",
                    "type": "Char",
                    "length": 8
                },
                {
                    "name": "ARM",
                    "label": "Description of Planned Arm",
                    "type": "Char",
                    "length": 28
                },
                {
                    "name": "TAETORD",
                    "label": "Planned Order of Element within Arm",
                    "type": "Num",
                    "length": 8
                },
                {
                    "name": "ETCD",
                    "label": "Element Code",
                    "type": "Char",
                    "length": 7
                },
                {
                    "name": "ELEMENT",
                    "label": "Description of Element",
                    "type": "Char",
                    "length": 26
                },
                {
                    "name": "TABRANCH",
                    "label": "Branch",
                    "type": "Char",
                    "length": 200
                },
                {
                    "name": "TATRANS",
                    "label": "Transition Rule",
                    "type": "Char",
                    "length": 200
                },
                {
                    "name": "EPOCH",
                    "label": "Epoch",
                    "type": "Char",
                    "length": 9
                }
            ],
            "records": {
                "STUDYID": [
                    "CDISCPILOT01",
                    "CDISCPILOT01",
                    "CDISCPILOT01",
                    "CDISCPILOT01"
                ],
                "DOMAIN": [
                    "TA",
                    "TA",
                    "TA",
                    "TA"
                ],
                "ARMCD": [
                    "PLACEBO",
                    "PLACEBO",
                    "ZAN_LOW",
                    "ZAN_LOW"
                ],
                "ARM": [
                    "Placebo",
                    "Placebo",
                    "Zanomaline Low Dose (54 mg)",
                    "Zanomaline Low Dose (54 mg)"
                ],
                "TAETORD": [
                    1,
                    2,
                    1,
                    2
                ],
                "ETCD": [
                    "SCREEN",
                    "PLACEBO",
                    "SCREEN",
                    "LOW"
                ],
                "ELEMENT": [
                    "Screening",
                    "Placebo",
                    "Screening",
                    "Zanomaline 54 mg"
                ],
                "TABRANCH": [
                    "Randomized to Placebo",
                    "",
                    "Randomized to Zanomaline Low Dose",
                    ""
                ],
                "TATRANS": [
                    "",
                    "",
                    "",
                    ""
                ],
                "EPOCH": [
                    "SCREENING",
                    "TREATMENT",
                    "SCREENING",
                    "TREATMENT"
                ]
            }
        }
    ],
    "standard": {
        "product": "sdtmig",
        "version": "3-4"
    },
    "codelists": []
}