STUDYID,DOMAIN,USUBJID,MHSEQ,MHTERM,MHEVDTYP,MHSTDTC,MHSTDY
CDISCPILOT01,MH,CDISC001,1,ALZHEIMER'S DISEASE,SYMPTOM ONSET,2004-05-28,-3108
CDISCPILOT01,MH,CDISC002,1,ALZHEIMER'S DISEASE,SYMPTOM ONSET,2010-03-19,-972
CDISCPILOT01,MH,CDISC003,1,ALZHEIMER'S DISEASE,SYMPTOM ONSET,2007-02-09,-2393
