dataset,variable,label,type,length
ae,STUDYID,Study Identifier,Char,50
ae,DOMAIN,Domain Abbreviation,Char,50
ae,USUBJID,Unique Subject Identifier,Char,50
ae,AESEQ,Sequence Number,Num,8
ae,AETERM,Reported Term for the Adverse Event,Char,50
ae,AETOX,Toxicity,Char,50
ae,AETOXGR,Standard Toxicity Grade,Char,50
ae,EPOCH,Epoch,Char,50
mh,STUDYID,Study Identifier,Char,50
mh,DOMAIN,Domain Abbreviation,Char,50
mh,USUBJID,Unique Subject Identifier,Char,50
mh,MHSEQ,Sequence Number,Num,8
mh,MHTERM,Reported Term for the Medical History,Char,50
mh,MHTOX,Toxicity,Char,50
mh,MHTOXGR,Standard Toxicity Grade,Char,50
ce,STUDYID,Study Identifier,Char,50
ce,DOMAIN,Domain Abbreviation,Char,50
ce,USUBJID,Unique Subject Identifier,Char,50
ce,CESEQ,Sequence Number,Num,8
ce,CETERM,Reported Term for the Clinical Event,Char,50
ce,CETOX,Toxicity,Char,50
ce,CETOXGR,Standard Toxicity Grade,Char,50
ce,EPOCH,Epoch,Char,50
lb,STUDYID,Study Identifier,Char,50
lb,DOMAIN,Domain Abbreviation,Char,50
lb,USUBJID,Unique Subject Identifier,Char,50
lb,LBSEQ,Sequence Number,Num,8
lb,LBTESTCD,Lab Test or Examination Short Name,Char,50
lb,LBTEST,Lab Test or Examination Name,Char,50
lb,LBORRES,Result or Finding in Original Units,Char,50
lb,LBORRESU,Original Units,Char,50
lb,LBTOX,Toxicity,Char,50
lb,LBTOXGR,Standard Toxicity Grade,Char,50
lb,EPOCH,Epoch,Char,50
pc,STUDYID,Study Identifier,Char,50
pc,DOMAIN,Domain Abbreviation,Char,50
pc,USUBJID,Unique Subject Identifier,Char,50
pc,PCSEQ,Sequence Number,Num,8
pc,PCTESTCD,Pharmacokinetic Test Short Name,Char,50
pc,PCTEST,Pharmacokinetic Test Name,Char,50
pc,PCORRES,Result or Finding in Original Units,Char,50
pc,PCORRESU,Original Units,Char,50
pc,PCTOX,Toxicity,Char,50
pc,PCTOXGR,Standard Toxicity Grade,Char,50
pc,EPOCH,Epoch,Char,50
pp,STUDYID,Study Identifier,Char,50
pp,DOMAIN,Domain Abbreviation,Char,50
pp,USUBJID,Unique Subject Identifier,Char,50
pp,PPSEQ,Sequence Number,Num,8
pp,PPTESTCD,Parameter Short Name,Char,50
pp,PPTEST,Parameter Name,Char,50
pp,PPORRES,Result or Finding in Original Units,Char,50
pp,PPORRESU,Original Units,Char,50
pp,PPTOX,Toxicity,Char,50
pp,PPTOXGR,Standard Toxicity Grade,Char,50
