STUDYID,DOMAIN,USUBJID,AESEQ,AETERM,AETOX,AETOXGR,EPOCH
ABC123,AE,123101,1,NAUSEA,CTCAE 4.03,,SCREENING
ABC123,AE,123101,2,VOMITING,CTCAE 4.03,GRADE 2,SCREENING
ABC123,AE,123101,3,NAUSEA,CTCAE 4.03,,TREATMENT
