STUDYID,DOMAIN,USUBJID,PCSEQ,PCTESTCD,PCTEST,PCORRES,PCORRESU,PCTOX,PCTOXGR,EPOCH
ABC123,PC,123101,1,DRUG X,STUDYDRUG,9,ug/mL,NCI 4.03,GRADE 1,TREATMENT
ABC123,PC,123101,2,DRUG X,STUDYDRUG,20,ug/mL,NCI 4.03,GRADE 2,TREATMENT
