PROJID,PROJIDN,STUDYID,STUDYIDN,PART,USUBJID,USUBJIDN,SUBJID,SUBJIDN,SUBJTYP,SUBJTYPC,SITEID,SITEIDN,RECSEQ,AVISIT,AVISITN,VISIT,VISITNUM,AFRLT,ATPTREF,APRLT,NFRLT,NPRLT,ATPT,ATPTN,ADT,UDTC,ADY,ATM,OCC,DVID,DVIDN,CMT,AVAL,DV,PCSTRESC,EVID,MDV,AULOQ,ALLOQ,BLQFL,BLQFN,ALQFL,ALQFN,DOSEA,DOSEP,AMT,DOSETDD,FORM,FORMN,ROUTE,ROUTEN,TRTP,TRTPN,TRTA,TRTAN,APHASE,APHASEN,APERIOD,APERIODC,ARM,ARMN,ACTARM,ACTARMN,COHORTC,COHORT,WT,WTBL,HTBL,BMIBL,BSABL,AGE,SEX,SEXN,RACE,RACEN,ETHNIC,ETHNICN,REGION,REGIONN,COUNTRYL,COUNTRYN,CREATBL,UCREATBL,CRCLBL,EGFRBL,TBILBL,ASTBL,ALT,ITTFL,ITTFN
PROJECT-001,1,PROTOCOL-001,1,1,PROTOCOL-001-001-00137,100100137,137,137,1,Healthy volunteers,1,1,1,DAY 1,1,DAY 1,1,0,DAY 1 DOSE,0,0,0,DOSE,00:00:00,2020-01-21 00:00:00,,1,08:00:00,1,TEST PRODUCT (mg),0,1,.,.,,1,1,,,N,0,N,0,100,100,100,100,TABLET,1,ORAL,1900-01-01 00:00:00,TEST DRUG 100 MG Single dose,1,TEST DRUG 100 MG Single Dose,1,DOSE ESCALATION,1,1,BEFORE CROSSOVER,TEST DRUG 100 MG Single Dose,1,TEST DRUG 100 MG Single Dose,1,TEST DRUG 100 MG Single Dose,1,70,70,170,24.2,1.81,30,M,1,WHITE,1,Non-Hispanic,1,North America,1,UNITED STATES,1,1.2,1500,100,90,1,20,30,Y,1
PROJECT-001,1,PROTOCOL-001,1,1,PROTOCOL-001-001-00137,100100137,137,137,1,Healthy volunteers,1,1,16,DAY 1,1,DAY 1,1,3,DAY 1 DOSE,3,3,3,3H,3,2020-01-21 00:00:00,,1,2,07:54:00,DRUG (ng/mL),1,2,.,,BLOQ (<1.0 ng/mL) ,1,1,10000,1,Y,1,N,0,100,100,,,TABLET,1,ORAL,1,TEST DRUG 100 MG Single dose,1,TEST DRUG 100 MG Single Dose,1,BEFORE CROSSOVER,,1,BEFORE CROSSOVER,TEST DRUG 100 MG Single Dose,1,TEST DRUG 100 MG Single Dose,1,TEST DRUG 100 MG Single Dose,1,70,170,,24.2,1.81,30,M,1,WHITE,1,Non-Hispanic,1,North America,,UNITED STATES,1,1.2,1500,100,90,1,20,30,Y,1
PROJECT-001,1,PROTOCOL-001,1,1,PROTOCOL-001-001-00137,100100137,137,137,1,Healthy volunteers,1,1,4,DAY 1,1,DAY 1,1,0.25,DAY 1 DOSE,0.25,0.25,0.25,15MIN,0.25,2020-01-21 00:00:00,,1,08:15:00,1900-01-01 00:00:00,DRUG (ng/mL),1,2,2.907336063,2.907336063,2.907336063,0,0,10000,1,N,0,N,0,100,100,100,,TABLET,1,ORAL,1,TEST DRUG 100 MG Single dose,1,TEST DRUG 100 MG Single dose,1,DOSE ESCALATION,1,1,BEFORE CROSSOVER,TEST DRUG 100 MG Single dose,1,TEST DRUG 100 MG Single dose,1,TEST DRUG 100 MG Single dose,1,70,70,170,24.2,1.81,30,M,1,WHITE,1,Non-Hispanic,1,North America,1,UNITED STATES,1,1.2,1500,100,90,1,20,30,Y,1
PROTOCOL-002,2,PROTOCOL-002,2,2,PROTOCOL-002-001-00237,200100237,,,2,CONDITION A,1,1,1,DAY 1,1,DAY 1,1,-0.1,DAY 1 MORNING DOSE,-0.1,0,0,PREDOSE,0,2021-01-21 00:00:00,,1,07:54:00,1,DRUG (ng/mL),,2,.,.,BLOQ (<1 ng/mL),0,1,10000,1,Y,1,N,0,100,100,0,0,0,0,TABLET,1,ORAL,1,TEST DRUG 100 mg BID,1,,,,,,,,,,,,,,,,,,,,,,1,North America,1,UNITED STATES,1,1.2,1500,100,90,1,20,30,Y,1
PROJECT-001,1,PROTOCOL-002,2,2,PROTOCOL-002-001-00237,200100237,237,237,1,Healthy volunteers,1,1,2,DAY 1,1,DAY 1,1,-0.1,DAY 1 MORNING DOSE,-0.1,0,0,DOSE,0,2021-01-21 00:00:00,,1,07:54:00,1,BIOMARKER (ng/mL),2,5,128.3687764,128.3687764,128.3687764,0,0,2000,10,N,0,N,0,100,100,0,0,0,0,TABLET,1,ORAL,1,TEST DRUG 100 mg BID,1,,,,,,,,,,,,,,,,,,,,,,,,,,,,,,,,,,,
