dataset,variable,label,type,length
dm,STUDYID,Study Identifier,Char,12
dm,DOMAIN,Domain Abbreviation,Char,2
dm,USUBJID,Unique Subject Identifier,Char,8
dm,SUBJID,Subject Identifier for the Study,Char,4
dm,RFSTDTC,Subject Reference Start Date/Time,Char,10
dm,RFENDTC,Subject Reference End Date/Time,Char,10
dm,ARMCD,Planned Arm Code,Char,8
dm,ARM,Description of Planned Arm,Char,28
