{3 items
"datasets":[1 item
0:{5 items
"filename":"lb.xpt"
"label":"Laboratory Test Results"
"domain":"LB"
"variables":[24 items
0:{4 items
"name":"STUDYID"
"label":"Study Identifier"
"type":"Char"
"length":12
}
1:{4 items
"name":"DOMAIN"
"label":"Domain Abbreviation"
"type":"Char"
"length":2
}
2:{4 items
"name":"USUBJID"
"label":"Unique Subject Identifier"
"type":"Char"
"length":8
}
3:{4 items
"name":"LBSEQ"
"label":"Sequence Number"
"type":"Num"
"length":8
}
4:{4 items
"name":"LBTESTCD"
"label":"Lab Test or Examination Short Name"
"type":"Char"
"length":7
}
5:{4 items
"name":"LBTEST"
"label":"Lab Test or Examination Name"
"type":"Char"
"length":39
}
6:{4 items
"name":"LBCAT"
"label":"Category for Lab Test"
"type":"Char"
"length":10
}
7:{4 items
"name":"LBORRES"
"label":"Result or Finding in Original Units"
"type":"Char"
"length":6
}
8:{4 items
"name":"LBORRESU"
"label":"Original Units"
"type":"Char"
"length":7
}
9:{4 items
"name":"LBORNRLO"
"label":"Reference Range Lower Limit in Orig Unit"
"type":"Char"
"length":200
}
10:{4 items
"name":"LBORNRHI"
"label":"Reference Range Upper Limit in Orig Unit"
"type":"Char"
"length":200
}
11:{4 items
"name":"LBSTRESC"
"label":"Character Result/Finding in Std Format"
"type":"Char"
"length":8
}
12:{4 items
"name":"LBSTRESN"
"label":"Numeric Result/Finding in Standard Units"
"type":"Num"
"length":8
}
13:{4 items
"name":"LBSTRESU"
"label":"Standard Units"
"type":"Char"
"length":7
}
14:{4 items
"name":"LBSTNRLO"
"label":"Reference Range Lower Limit-Std Units"
"type":"Num"
"length":8
}
15:{4 items
"name":"LBSTNRHI"
"label":"Reference Range Upper Limit-Std Units"
"type":"Num"
"length":8
}
16:{4 items
"name":"LBNRIND"
"label":"Reference Range Indicator"
"type":"Char"
"length":8
}
17:{4 items
"name":"LBSTAT"
"label":"Completion Status"
"type":"Char"
"length":50
}
18:{4 items
"name":"LBLOBXFL"
"label":"Last Observation Before Exposure Flag"
"type":"Char"
"length":1
}
19:{4 items
"name":"VISITNUM"
"label":"Visit Number"
"type":"Num"
"length":8
}
20:{4 items
"name":"VISIT"
"label":"Visit Name"
"type":"Char"
"length":200
}
21:{4 items
"name":"EPOCH"
"label":"Epoch"
"type":"Char"
"length":9
}
22:{4 items
"name":"LBDTC"
"label":"Date/Time of Specimen Collection"
"type":"Char"
"length":19
}
23:{4 items
"name":"LBDY"
"label":"Study Day of Specimen Collection"
"type":"Num"
"length":8
}
]
"records":{24 items
"STUDYID":[3 items
0:"CDISCPILOT01"
1:"CDISCPILOT01"
2:"CDISCPILOT01"
]
"DOMAIN":[3 items
0:"LB"
1:"LB"
2:"LB"
]
"USUBJID":[3 items
0:"CDISC001"
1:"CDISC001"
2:"CDISC001"
]
"LBSEQ":[3 items
0:1
1:2
2:3
]
"LBTESTCD":[3 items
0:"ALB"
1:"ALP"
2:"ALB"
]
"LBTEST":[3 items
0:"Albumin"
1:"Alkaline Phosphatase"
2:"Albumin"
]
"LBCAT":[3 items
0:"CHEMISTRY"
1:"CHEMISTRY"
2:"CHEMISTRY"
]
"LBORRES":[3 items
0:"3.9"
1:""
2:"4"
]
"LBORRESU":[3 items
0:"g/dL"
1:"U/L"
2:"g/dL"
]
"LBORNRLO":[3 items
0:"3.5"
1:"35"
2:"3.5"
]
"LBORNRHI":[3 items
0:"4.6"
1:"115"
2:"4.6"
]
"LBSTRESC":[3 items
0:"39"
1:"93"
2:"39"
]
"LBSTRESN":[3 items
0:39
1:93
2:39
]
"LBSTRESU":[3 items
0:"g/L"
1:"U/L"
2:"g/L"
]
"LBSTNRLO":[3 items
0:35
1:35
2:35
]
"LBSTNRHI":[3 items
0:46
1:115
2:46
]
"LBNRIND":[3 items
0:"NORMAL"
1:"NORMAL"
2:"NORMAL"
]
"LBSTAT":[3 items
0:""
1:"NOT DONE"
2:""
]
"LBLOBXFL":[3 items
0:"Y"
1:"Y"
2:"Y"
]
"VISITNUM":[3 items
0:1
1:1
2:1
]
"VISIT":[3 items
0:"SCREENING 1"
1:"SCREENING 1"
2:"SCREENING 1"
]
"EPOCH":[3 items
0:"SCREENING"
1:"SCREENING"
2:"SCREENING"
]
"LBDTC":[3 items
0:"2012-11-23T11:20"
1:"2012-11-23T11:20"
2:"2012-11-23T11:20"
]
"LBDY":[3 items
0:-7
1:-7
2:-7
]
}
}
]
"standard":{2 items
"product":"sdtmig"
"version":"3-4"
}
"codelists":[]0 items
}