{
    "rule": {
        "Authorities": [
            {
                "Organization": "CDISC",
                "Standards": [
                    {
                        "Name": "SDTMIG",
                        "References": [
                            {
                                "Citations": [
                                    {
                                        "Document": "IG v3.4",
                                        "Section": "2.1",
                                        "Cited_Guidance": "Each variable can be classified according to its Role. A Role determines the type of information conveyed by the variable about each distinct observation and how it can be used. Variables can be classified into five major roles."
                                    }
                                ],
                                "Origin": "SDTM and SDTMIG Conformance Rules",
                                "Version": "2.0",
                                "Rule_Identifier": {
                                    "Id": "CG0010",
                                    "Version": "2"
                                }
                            }
                        ],
                        "Version": "3.4"
                    },
                    {
                        "Name": "SDTMIG",
                        "References": [
                            {
                                "Citations": [
                                    {
                                        "Document": "IG v3.2|Model v1.4",
                                        "Section": "IG v3.2[3.1]|Model v1.4[2]",
                                        "Cited_Guidance": "IG v3.2[3.1][Since these roles are predefined for all standard domains that follow the general observation classes]|Model v1.4[2][Each variable . . . can be classified according to its Role]"
                                    }
                                ],
                                "Origin": "SDTM and SDTMIG Conformance Rules",
                                "Version": "2.0",
                                "Rule_Identifier": {
                                    "Id": "CG0010",
                                    "Version": "2"
                                }
                            }
                        ],
                        "Version": "3.2"
                    },
                    {
                        "Name": "SDTMIG",
                        "References": [
                            {
                                "Citations": [
                                    {
                                        "Document": "IG v3.3",
                                        "Section": "2.1",
                                        "Cited_Guidance": "Each variable can be classified according to its Role. A Role determines the type of information conveyed by the variable about each distinct observation and how it can be used. Variables can be classified into five major roles."
                                    }
                                ],
                                "Origin": "SDTM and SDTMIG Conformance Rules",
                                "Version": "2.0",
                                "Rule_Identifier": {
                                    "Id": "CG0010",
                                    "Version": "2"
                                }
                            }
                        ],
                        "Version": "3.3"
                    }
                ]
            }
        ],
        "Check": {
            "all": [
                {
                    "name": "define_variable_role",
                    "operator": "not_equal_to",
                    "value": "library_variable_role"
                }
            ]
        },
        "Core": {
            "Id": "CDISC.SDTMIG.CG0010",
            "Status": "Draft",
            "Version": "1"
        },
        "Description": "Raise an error when the metadata attribute of variable role does not match the IG role for domain in IG, or model role (for custom domains)",
        "Executability": "Fully Executable",
        "Outcome": {
            "Message": "Variable role specified in the define-xml does not match the variable role in the IG (for domains) or in the model (for custom domains).",
            "Output_Variables": [
                "define_variable_role",
                "define_variable_name",
                "library_variable_role"
            ]
        },
        "Scope": {
            "Classes": {
                "Include": [
                    "ALL"
                ]
            },
            "Domains": {
                "Include": [
                    "ALL"
                ]
            }
        },
        "Sensitivity": "Record",
        "Rule_Type": "Define Item Metadata Check against Library Metadata"
    },
    "datasets": [
        {
            "filename": "sv.xpt",
            "label": "Subject Visits",
            "domain": "SV",
            "variables": [
                {
                    "name": "STUDYID",
                    "label": "Study Identifier",
                    "type": "Char",
                    "length": 12
                },
                {
                    "name": "DOMAIN",
                    "label": "Domain Abbreviation",
                    "type": "Char",
                    "length": 2
                },
                {
                    "name": "USUBJID",
                    "label": "Unique Subject Identifier",
                    "type": "Char",
                    "length": 15
                },
                {
                    "name": "SUBJID",
                    "label": "Subject Identifier for the Study",
                    "type": "Char",
                    "length": 7
                },
                {
                    "name": "VISITNUM",
                    "label": "Visit Number",
                    "type": "Num",
                    "length": 8
                },
                {
                    "name": "VISIT",
                    "label": "Visit Name",
                    "type": "Char",
                    "length": 17
                },
                {
                    "name": "VISITDY",
                    "label": "Planned Study Day of Visit",
                    "type": "Num",
                    "length": 8
                },
                {
                    "name": "EPOCH",
                    "label": "Epoch",
                    "type": "Char",
                    "length": 20
                },
                {
                    "name": "SVSTDTC",
                    "label": "Start Date/Time of Visit",
                    "type": "Char",
                    "length": 10
                },
                {
                    "name": "SVENDTC",
                    "label": "End Date/Time of Visit",
                    "type": "Num",
                    "length": 8
                },
                {
                    "name": "SVSTDY",
                    "label": "Study Day of Start of Visit",
                    "type": "Num",
                    "length": 8
                },
                {
                    "name": "SVENDY",
                    "label": "Study Day of End of Visit",
                    "type": "Num",
                    "length": 8
                },
                {
                    "name": "SVUPDES",
                    "label": "Description of Unplanned Visit",
                    "type": "Char",
                    "length": 30
                }
            ],
            "records": {
                "STUDYID": [
                    "CDISCPILOT01",
                    "CDISCPILOT01",
                    "CDISCPILOT01",
                    "CDISCPILOT01"
                ],
                "DOMAIN": [
                    "SV",
                    "SV",
                    "SV",
                    "SV"
                ],
                "USUBJID": [
                    "CDISC001",
                    "CDISC001",
                    "CDISC001",
                    "CDISC001"
                ],
                "SUBJID": [
                    "1",
                    "1",
                    "1",
                    "1"
                ],
                "VISITNUM": [
                    1,
                    2,
                    3,
                    4
                ],
                "VISIT": [
                    "SCREENING",
                    "SCREENING",
                    "DAY 1",
                    "DAY 4"
                ],
                "VISITDY": [
                    -28,
                    1,
                    3,
                    6
                ],
                "EPOCH": [
                    "SCREENING",
                    "SCREENING",
                    "SCREENING",
                    "7"
                ],
                "SVSTDTC": [
                    "2021-04-27",
                    "2021-05-01",
                    "2021-05-01",
                    "8"
                ],
                "SVENDTC": [
                    null,
                    null,
                    null,
                    9
                ],
                "SVSTDY": [
                    -28,
                    1,
                    1,
                    10
                ],
                "SVENDY": [
                    -28,
                    1,
                    1,
                    11
                ],
                "SVUPDES": [
                    "Evaluation of AE",
                    "Evaluation of AE",
                    "Evaluation of AE",
                    "Evaluation of AE"
                ]
            }
        },
        {
            "filename": "xd.xpt",
            "label": "Death Details",
            "domain": "XD",
            "variables": [
                {
                    "name": "STUDYID",
                    "label": "Study Identifier",
                    "type": "Char",
                    "length": 12
                },
                {
                    "name": "DOMAIN",
                    "label": "Domain Abbreviation",
                    "type": "Char",
                    "length": 2
                },
                {
                    "name": "USUBJID",
                    "label": "Unique Subject Identifier",
                    "type": "Char",
                    "length": 50
                },
                {
                    "name": "XDSEQ",
                    "label": "Sequence Number",
                    "type": "Num",
                    "length": 8
                },
                {
                    "name": "XDTESTCD",
                    "label": "Lab Test or Examination Short Name",
                    "type": "Char",
                    "length": 50
                },
                {
                    "name": "XDTEST",
                    "label": "Lab Test or Examination Name",
                    "type": "Char",
                    "length": 50
                },
                {
                    "name": "XDORRES",
                    "label": "Result or Finding in Original Units",
                    "type": "Char",
                    "length": 50
                },
                {
                    "name": "XDORRESU",
                    "label": "Original Units",
                    "type": "Char",
                    "length": 50
                }
            ],
            "records": {
                "STUDYID": [
                    "CDISCPILOT01",
                    "CDISCPILOT01",
                    "CDISCPILOT01",
                    "CDISCPILOT01"
                ],
                "DOMAIN": [
                    "XD",
                    "XD",
                    "XD",
                    "XD"
                ],
                "USUBJID": [
                    "S001",
                    "S001",
                    "S001",
                    "S001"
                ],
                "XDSEQ": [
                    1,
                    2,
                    3,
                    4
                ],
                "XDTESTCD": [
                    "ABC1",
                    "ABC2",
                    "ABC3",
                    "ABC4"
                ],
                "XDTEST": [
                    "ABC1",
                    "ABC2",
                    "ABC3",
                    "ABC4"
                ],
                "XDORRES": [
                    "50",
                    "51",
                    "52",
                    "53"
                ],
                "XDORRESU": [
                    "mm",
                    "mm",
                    "mm",
                    "mm"
                ]
            }
        },
        {
            "filename": "lb.xpt",
            "label": "Laboratory Test Results",
            "domain": "LB",
            "variables": [
                {
                    "name": "STUDYID",
                    "label": "Study Identifier",
                    "type": "Char",
                    "length": 50
                },
                {
                    "name": "DOMAIN",
                    "label": "Domain Abbreviation",
                    "type": "Char",
                    "length": 50
                },
                {
                    "name": "USUBJID",
                    "label": "Unique Subject Identifier",
                    "type": "Char",
                    "length": 50
                },
                {
                    "name": "LBSEQ",
                    "label": "Sequence Number",
                    "type": "Num",
                    "length": 8
                },
                {
                    "name": "LBGRPID",
                    "label": "Group ID",
                    "type": "Char",
                    "length": 50
                },
                {
                    "name": "LBREFID",
                    "label": "Specimen ID",
                    "type": "Char",
                    "length": 50
                },
                {
                    "name": "LBSPID",
                    "label": "Sponsor-Defined Identifier",
                    "type": "Char",
                    "length": 50
                },
                {
                    "name": "LBTESTCD",
                    "label": "Lab Test or Examination Short Name",
                    "type": "Char",
                    "length": 50
                },
                {
                    "name": "LBTEST",
                    "label": "Lab Test or Examination Name",
                    "type": "Char",
                    "length": 50
                },
                {
                    "name": "LBTSTCND",
                    "label": "Test Condition",
                    "type": "Char",
                    "length": 50
                },
                {
                    "name": "LBBDAGNT",
                    "label": "Binding Agent",
                    "type": "Char",
                    "length": 50
                },
                {
                    "name": "LBTSTOPO",
                    "label": "Test Operational Objective",
                    "type": "Char",
                    "length": 50
                },
                {
                    "name": "LBCAT",
                    "label": "Category for Lab Test",
                    "type": "Char",
                    "length": 50
                },
                {
                    "name": "LBSCAT",
                    "label": "Subcategory for Lab Test",
                    "type": "Char",
                    "length": 50
                },
                {
                    "name": "LBORRES",
                    "label": "Result or Finding in Original Units",
                    "type": "Char",
                    "length": 50
                },
                {
                    "name": "LBORRESU",
                    "label": "Original Units",
                    "type": "Char",
                    "length": 50
                },
                {
                    "name": "LBRESSCL",
                    "label": "Result Scale",
                    "type": "Char",
                    "length": 50
                },
                {
                    "name": "LBRESTYP",
                    "label": "Result Type",
                    "type": "Char",
                    "length": 50
                },
                {
                    "name": "LBCOLSRT",
                    "label": "Collected Summary Result Type",
                    "type": "Char",
                    "length": 50
                },
                {
                    "name": "LBORNRLO",
                    "label": "Reference Range Lower Limit in Orig Unit",
                    "type": "Char",
                    "length": 50
                },
                {
                    "name": "LBORNRHI",
                    "label": "Reference Range Upper Limit in Orig Unit",
                    "type": "Char",
                    "length": 50
                },
                {
                    "name": "LBLLOD",
                    "label": "Lower Limit of Detection",
                    "type": "Char",
                    "length": 50
                },
                {
                    "name": "LBSTRESC",
                    "label": "Character Result/Finding in Std Format",
                    "type": "Char",
                    "length": 50
                },
                {
                    "name": "LBSTRESN",
                    "label": "Numeric Result/Finding in Standard Units",
                    "type": "Num",
                    "length": 8
                },
                {
                    "name": "LBSTRESU",
                    "label": "Standard Units",
                    "type": "Char",
                    "length": 50
                },
                {
                    "name": "LBSTNRLO",
                    "label": "Reference Range Lower Limit-Std Units",
                    "type": "Num",
                    "length": 8
                },
                {
                    "name": "LBSTNRHI",
                    "label": "Reference Range Upper Limit-Std Units",
                    "type": "Num",
                    "length": 8
                },
                {
                    "name": "LBSTNRC",
                    "label": "Reference Range for Char Rslt-Std Units",
                    "type": "Char",
                    "length": 50
                },
                {
                    "name": "LBNRIND",
                    "label": "Reference Range Indicator",
                    "type": "Char",
                    "length": 50
                },
                {
                    "name": "LBSTAT",
                    "label": "Completion Status",
                    "type": "Char",
                    "length": 50
                },
                {
                    "name": "LBREASND",
                    "label": "Reason Test Not Done",
                    "type": "Char",
                    "length": 50
                },
                {
                    "name": "LBNAM",
                    "label": "Vendor Name",
                    "type": "Char",
                    "length": 50
                },
                {
                    "name": "LBLOINC",
                    "label": "LOINC Code",
                    "type": "Char",
                    "length": 50
                },
                {
                    "name": "LBSPEC",
                    "label": "Specimen Type",
                    "type": "Char",
                    "length": 50
                },
                {
                    "name": "LBSPCCND",
                    "label": "Specimen Condition",
                    "type": "Char",
                    "length": 50
                },
                {
                    "name": "LBSPCUFL",
                    "label": "Specimen Usability for the Test",
                    "type": "Char",
                    "length": 50
                },
                {
                    "name": "LBMETHOD",
                    "label": "Method of Test or Examination",
                    "type": "Char",
                    "length": 50
                },
                {
                    "name": "LBANMETH",
                    "label": "Analysis Method",
                    "type": "Char",
                    "length": 50
                },
                {
                    "name": "LBTMTHSN",
                    "label": "Test Method Sensitivity",
                    "type": "Char",
                    "length": 50
                },
                {
                    "name": "LBLOBXFL",
                    "label": "Last Observation Before Exposure Flag",
                    "type": "Char",
                    "length": 50
                },
                {
                    "name": "LBBLFL",
                    "label": "Baseline Flag",
                    "type": "Char",
                    "length": 50
                },
                {
                    "name": "LBFAST",
                    "label": "Fasting Status",
                    "type": "Char",
                    "length": 50
                },
                {
                    "name": "LBDRVFL",
                    "label": "Derived Flag",
                    "type": "Char",
                    "length": 50
                },
                {
                    "name": "LBTOX",
                    "label": "Toxicity",
                    "type": "Char",
                    "length": 50
                },
                {
                    "name": "LBTOXGR",
                    "label": "Standard Toxicity Grade",
                    "type": "Char",
                    "length": 50
                },
                {
                    "name": "LBCLSIG",
                    "label": "Clinically Significant, Collected",
                    "type": "Char",
                    "length": 50
                },
                {
                    "name": "VISITNUM",
                    "label": "Visit Number",
                    "type": "Num",
                    "length": 8
                },
                {
                    "name": "VISIT",
                    "label": "Visit Name",
                    "type": "Char",
                    "length": 50
                },
                {
                    "name": "VISITDY",
                    "label": "Planned Study Day of Visit",
                    "type": "Num",
                    "length": 8
                },
                {
                    "name": "TAETORD",
                    "label": "Planned Order of Element within Arm",
                    "type": "Num",
                    "length": 8
                },
                {
                    "name": "EPOCH",
                    "label": "Epoch",
                    "type": "Char",
                    "length": 50
                },
                {
                    "name": "LBDTC",
                    "label": "Date/Time of Specimen Collection",
                    "type": "Char",
                    "length": 50
                },
                {
                    "name": "LBENDTC",
                    "label": "End Date/Time of Specimen Collection",
                    "type": "Char",
                    "length": 50
                },
                {
                    "name": "LBDY",
                    "label": "Study Day of Specimen Collection",
                    "type": "Num",
                    "length": 8
                },
                {
                    "name": "LBENDY",
                    "label": "Study Day of End of Observation",
                    "type": "Num",
                    "length": 8
                },
                {
                    "name": "LBTPT",
                    "label": "Planned Time Point Name",
                    "type": "Char",
                    "length": 50
                },
                {
                    "name": "LBTPTNUM",
                    "label": "Planned Time Point Number",
                    "type": "Num",
                    "length": 8
                },
                {
                    "name": "LBELTM",
                    "label": "Planned Elapsed Time from Time Point Ref",
                    "type": "Char",
                    "length": 50
                },
                {
                    "name": "LBTPTREF",
                    "label": "Time Point Reference",
                    "type": "Char",
                    "length": 50
                },
                {
                    "name": "LBRFTDTC",
                    "label": "Date/Time of Reference Time Point",
                    "type": "Char",
                    "length": 50
                },
                {
                    "name": "LBPTFL",
                    "label": "Point in Time Flag",
                    "type": "Char",
                    "length": 50
                },
                {
                    "name": "LBPDUR",
                    "label": "Planned Duration",
                    "type": "Char",
                    "length": 50
                }
            ],
            "records": {
                "STUDYID": [
                    "CDISC-PILOT-01"
                ],
                "DOMAIN": [
                    "LB"
                ],
                "USUBJID": [
                    "S001"
                ],
                "LBSEQ": [
                    1
                ],
                "LBGRPID": [
                    "320"
                ],
                "LBREFID": [
                    ""
                ],
                "LBSPID": [
                    ""
                ],
                "LBTESTCD": [
                    ""
                ],
                "LBTEST": [
                    ""
                ],
                "LBTSTCND": [
                    ""
                ],
                "LBBDAGNT": [
                    ""
                ],
                "LBTSTOPO": [
                    ""
                ],
                "LBCAT": [
                    ""
                ],
                "LBSCAT": [
                    ""
                ],
                "LBORRES": [
                    ""
                ],
                "LBORRESU": [
                    ""
                ],
                "LBRESSCL": [
                    ""
                ],
                "LBRESTYP": [
                    ""
                ],
                "LBCOLSRT": [
                    ""
                ],
                "LBORNRLO": [
                    ""
                ],
                "LBORNRHI": [
                    ""
                ],
                "LBLLOD": [
                    ""
                ],
                "LBSTRESC": [
                    ""
                ],
                "LBSTRESN": [
                    null
                ],
                "LBSTRESU": [
                    ""
                ],
                "LBSTNRLO": [
                    null
                ],
                "LBSTNRHI": [
                    null
                ],
                "LBSTNRC": [
                    ""
                ],
                "LBNRIND": [
                    ""
                ],
                "LBSTAT": [
                    ""
                ],
                "LBREASND": [
                    ""
                ],
                "LBNAM": [
                    ""
                ],
                "LBLOINC": [
                    ""
                ],
                "LBSPEC": [
                    ""
                ],
                "LBSPCCND": [
                    ""
                ],
                "LBSPCUFL": [
                    ""
                ],
                "LBMETHOD": [
                    ""
                ],
                "LBANMETH": [
                    ""
                ],
                "LBTMTHSN": [
                    ""
                ],
                "LBLOBXFL": [
                    ""
                ],
                "LBBLFL": [
                    ""
                ],
                "LBFAST": [
                    ""
                ],
                "LBDRVFL": [
                    ""
                ],
                "LBTOX": [
                    ""
                ],
                "LBTOXGR": [
                    ""
                ],
                "LBCLSIG": [
                    ""
                ],
                "VISITNUM": [
                    null
                ],
                "VISIT": [
                    ""
                ],
                "VISITDY": [
                    null
                ],
                "TAETORD": [
                    null
                ],
                "EPOCH": [
                    ""
                ],
                "LBDTC": [
                    ""
                ],
                "LBENDTC": [
                    ""
                ],
                "LBDY": [
                    null
                ],
                "LBENDY": [
                    null
                ],
                "LBTPT": [
                    ""
                ],
                "LBTPTNUM": [
                    null
                ],
                "LBELTM": [
                    ""
                ],
                "LBTPTREF": [
                    ""
                ],
                "LBRFTDTC": [
                    ""
                ],
                "LBPTFL": [
                    ""
                ],
                "LBPDUR": [
                    ""
                ]
            }
        }
    ],
    "standard": {
        "product": "sdtmig",
        "version": "3-4"
    },
    "codelists": [],
    "define_xml": "<?xml version=\"1.0\" encoding=\"UTF-8\"?>\r\n<?xml-stylesheet type=\"text/xsl\" href=\"define2-1.xsl\"?>\r\n<!-- ********************************************************************************* -->\r\n<!-- File: defineV21-MSGv2.xml                                                          -->\r\n<!-- Author: CDISC MSG v2 Team                                                         -->\r\n<!-- Description: This is a draft define.xml V2.1.0 document based on the define.xml   -->\r\n<!--    Metadata provided by the MSG v2 Team                                           -->\r\n<!--    plus adjustments to comply with the Define-XML Specification Version 2.1.0     -->\r\n<!-- Release Note(s):                                                                  -->\r\n<!--  1. The resulting HTML presentation and the availability and usability of         -->\r\n<!--      functions will vary depending upon which browser application used.           -->\r\n<!-- ********************************************************************************* -->\r\n\r\n\r\n<ODM \r\n  xmlns=\"http://www.cdisc.org/ns/odm/v1.3\" \r\n  xmlns:xlink=\"http://www.w3.org/1999/xlink\"\r\n  xmlns:def=\"http://www.cdisc.org/ns/def/v2.1\"\r\n\r\n  ODMVersion=\"1.3.2\"\r\n  FileOID=\"www.cdisc.org/StudyMSGv2/1/Define-XML_2.1.0\"\r\n  FileType=\"Snapshot\"\r\n  CreationDateTime=\"2021-01-24T16:59:33\"\r\n  Originator=\"CDISC MSG Team\"\r\n  SourceSystem=\"M.Hungria-System\"\r\n  SourceSystemVersion=\"2.1-A1\"\r\n  def:Context=\"Submission\"\r\n  >\r\n\r\n\r\n  <!-- ******************************************  -->\r\n  <!-- OID conventions used in this example:       -->\r\n  <!--    Study                   = STDY.          -->\r\n  <!--    MetaDataVersion         = MDV.           -->\r\n  <!--    def:Standard            = STD.           -->\r\n  <!--    def:ValueListDef        = VL.            -->\r\n  <!--    def:WhereClauseDef      = WC.            -->\r\n  <!--    ItemGroupDef            = IG.            -->\r\n  <!--    ItemDef                 = IT.            -->\r\n  <!--    CodeList                = CL.            -->\r\n  <!--    MethodDef               = MT.            -->\r\n  <!--    def:CommentDef          = COM.           -->\r\n  <!--    def:leaf, leafID        = LF.            -->\r\n  <!-- ******************************************  -->\r\n  \r\n<Study OID=\"cdisc.com/CDISCPILOT01\">\r\n  <GlobalVariables>\r\n    <StudyName>CDISCPILOT01</StudyName>\r\n    <StudyDescription>Study Data Tabulation Model Metadata Submission Guidelines Sample Study</StudyDescription>\r\n    <ProtocolName>CDISCPILOT01</ProtocolName>\r\n  </GlobalVariables>\r\n  <MetaDataVersion OID=\"MDV.MSGv2.0.SDTMIG.3.3.SDTM.1.7\"\r\n    Name=\"Data Definitions for MSGv2.0 SDTM datasets.\"\r\n    Description=\"This metadata version contains only a subset of SDTM domains available in the SDTMIG 3.3. The data contained do not represent the data which would appear together in an actual regulatory submission.\"\r\n    def:DefineVersion=\"2.1.0\"\r\n    def:CommentOID=\"COM.MDV\">\r\n\r\n      <!-- ************************************************************************** -->\r\n      <!-- Standard Definitions                                                       -->\r\n      <!-- ************************************************************************** -->\r\n\r\n  <def:Standards>\r\n      <def:Standard OID=\"STD.1\" Name=\"STDTMIG\" Type=\"IG\" Version=\"3.3\" Status=\"Final\" def:CommentOID=\"COM.ST1\"/>\r\n      <def:Standard OID=\"STD.2_1\" Name=\"SDTMIG-MD\" Type=\"IG\" Version=\"1.1\" Status=\"Final\" def:CommentOID=\"COM.ST2\"/>\r\n      <def:Standard OID=\"STD.4\" Name=\"CDISC/NCI\" Type=\"CT\" PublishingSet=\"DEFINE-XML\" Version=\"2020-12-18\" Status=\"Final\" def:CommentOID=\"COM.ST4\"/>\r\n      <def:Standard OID=\"STD.3\" Name=\"CDISC/NCI\" Type=\"CT\" PublishingSet=\"SDTM\" Version=\"2020-12-18\" Status=\"Final\" def:CommentOID=\"COM.ST3\"/>\r\n  </def:Standards>\r\n\r\n      <!-- ************************************************************************** -->\r\n      <!-- Supporting Documents                                                       -->\r\n      <!-- ************************************************************************** -->\r\n\r\n      <def:SupplementalDoc>\r\n        <def:DocumentRef leafID=\"LF.csdrg\"/>\r\n      </def:SupplementalDoc>\r\n\r\n      <!-- ************************************************************************************************************************ -->\r\n      <!-- Value List Definitions Section (Required for Supplemental Qualifiers, Optional for other Normalized (Vertical) Datasets) -->\r\n      <!--       (Note that any definitions not provided at a Value Level will be inherited from the parent item definition)        -->\r\n      <!-- ************************************************************************************************************************ -->\r\n\r\n      <def:ValueListDef OID=\"VL.AETERM\">\r\n        <ItemRef ItemOID=\"IT.AE.AETERM.1\" OrderNumber=\"1\" Mandatory=\"Yes\">\r\n          <def:WhereClauseRef WhereClauseOID=\"WC.AETERM1\"/>\r\n        </ItemRef>\r\n        <ItemRef ItemOID=\"IT.AE.AETERM.2\" OrderNumber=\"2\" Mandatory=\"Yes\">\r\n          <def:WhereClauseRef WhereClauseOID=\"WC.AETERM2\"/>\r\n        </ItemRef>\r\n      </def:ValueListDef>\r\n      <def:ValueListDef OID=\"VL.DSDECOD\">\r\n        <ItemRef ItemOID=\"IT.DS.DSDECOD.3\" OrderNumber=\"1\" Mandatory=\"No\">\r\n          <def:WhereClauseRef WhereClauseOID=\"WC.DSDECOD1\"/>\r\n        </ItemRef>\r\n        <ItemRef ItemOID=\"IT.DS.DSDECOD.4\" OrderNumber=\"2\" Mandatory=\"No\">\r\n          <def:WhereClauseRef WhereClauseOID=\"WC.DSDECOD2\"/>\r\n        </ItemRef>\r\n      </def:ValueListDef>\r\n      <def:ValueListDef OID=\"VL.DSTERM\">\r\n        <ItemRef ItemOID=\"IT.DS.DSTERM.1\" OrderNumber=\"1\" Mandatory=\"No\">\r\n          <def:WhereClauseRef WhereClauseOID=\"WC.DSTERM1\"/>\r\n        </ItemRef>\r\n        <ItemRef ItemOID=\"IT.DS.DSTERM.2\" OrderNumber=\"2\" Mandatory=\"No\">\r\n          <def:WhereClauseRef WhereClauseOID=\"WC.DSTERM2\"/>\r\n        </ItemRef>\r\n      </def:ValueListDef>\r\n      <def:ValueListDef OID=\"VL.FAORRES\">\r\n        <ItemRef ItemOID=\"IT.FA.FAORRES.1\" OrderNumber=\"1\" Mandatory=\"No\">\r\n          <def:WhereClauseRef WhereClauseOID=\"WC.FASEV\"/>\r\n        </ItemRef>\r\n        <ItemRef ItemOID=\"IT.FA.FAORRES.2\" OrderNumber=\"2\" Mandatory=\"No\">\r\n          <def:WhereClauseRef WhereClauseOID=\"WC.FAOCCUR\"/>\r\n        </ItemRef>\r\n      </def:ValueListDef>\r\n      <def:ValueListDef OID=\"VL.FASTRESC\">\r\n        <ItemRef ItemOID=\"IT.FA.FASTRESC.1\" OrderNumber=\"1\" Mandatory=\"No\">\r\n          <def:WhereClauseRef WhereClauseOID=\"WC.FASEV\"/>\r\n        </ItemRef>\r\n        <ItemRef ItemOID=\"IT.FA.FASTRESC.2\" OrderNumber=\"2\" Mandatory=\"No\">\r\n          <def:WhereClauseRef WhereClauseOID=\"WC.FAOCCUR\"/>\r\n        </ItemRef>\r\n      </def:ValueListDef>\r\n      <def:ValueListDef OID=\"VL.FTORRES\">\r\n        <ItemRef ItemOID=\"IT.FT.FTORRES.1\" OrderNumber=\"1\" Mandatory=\"No\">\r\n          <def:WhereClauseRef WhereClauseOID=\"WC.AVL0201-15\"/>\r\n        </ItemRef>\r\n        <ItemRef ItemOID=\"IT.FT.FTORRES.2\" OrderNumber=\"2\" Mandatory=\"No\">\r\n          <def:WhereClauseRef WhereClauseOID=\"WC.AVL0216-17\"/>\r\n        </ItemRef>\r\n        <ItemRef ItemOID=\"IT.FT.FTORRES.3\" OrderNumber=\"3\" Mandatory=\"No\">\r\n          <def:WhereClauseRef WhereClauseOID=\"WC.AVL0218-32\"/>\r\n        </ItemRef>\r\n        <ItemRef ItemOID=\"IT.FT.FTORRES.4\" OrderNumber=\"4\" Mandatory=\"No\">\r\n          <def:WhereClauseRef WhereClauseOID=\"WC.AVL0233-34\"/>\r\n        </ItemRef>\r\n      </def:ValueListDef>\r\n      <def:ValueListDef OID=\"VL.LBORRES\">\r\n        <ItemRef ItemOID=\"IT.LB.LBORRES.1\" OrderNumber=\"1\" Mandatory=\"No\">\r\n          <def:WhereClauseRef WhereClauseOID=\"WC.LB_ORRES_SET1\"/>\r\n        </ItemRef>\r\n        <ItemRef ItemOID=\"IT.LB.LBORRES.2\" OrderNumber=\"2\" Mandatory=\"No\">\r\n          <def:WhereClauseRef WhereClauseOID=\"WC.LB_ORRES_SET2\"/>\r\n        </ItemRef>\r\n        <ItemRef ItemOID=\"IT.LB.LBORRES.3\" OrderNumber=\"3\" Mandatory=\"No\">\r\n          <def:WhereClauseRef WhereClauseOID=\"WC.LB_ORRES_SET3\"/>\r\n        </ItemRef>\r\n        <ItemRef ItemOID=\"IT.LB.LBORRES.4\" OrderNumber=\"4\" Mandatory=\"No\">\r\n          <def:WhereClauseRef WhereClauseOID=\"WC.LB_ORRES_SPGRAV\"/>\r\n        </ItemRef>\r\n        <ItemRef ItemOID=\"IT.LB.LBORRES.5\" OrderNumber=\"5\" Mandatory=\"No\">\r\n          <def:WhereClauseRef WhereClauseOID=\"WC.LB_ORRES_SET4\"/>\r\n        </ItemRef>\r\n        <ItemRef ItemOID=\"IT.LB.LBORRES.6\" OrderNumber=\"6\" Mandatory=\"No\">\r\n          <def:WhereClauseRef WhereClauseOID=\"WC.LB_ORRES_SET5\"/>\r\n        </ItemRef>\r\n        <ItemRef ItemOID=\"IT.LB.LBORRES.7\" OrderNumber=\"7\" Mandatory=\"No\">\r\n          <def:WhereClauseRef WhereClauseOID=\"WC.LB_ORRES_SET6\"/>\r\n        </ItemRef>\r\n        <ItemRef ItemOID=\"IT.LB.LBORRES.8\" OrderNumber=\"8\" Mandatory=\"No\">\r\n          <def:WhereClauseRef WhereClauseOID=\"WC.LB_ORRES_COLOR\"/>\r\n        </ItemRef>\r\n        <ItemRef ItemOID=\"IT.LB.LBORRES.9\" OrderNumber=\"9\" Mandatory=\"No\">\r\n          <def:WhereClauseRef WhereClauseOID=\"WC.LB_ORRES_GLUC\"/>\r\n        </ItemRef>\r\n      </def:ValueListDef>\r\n      <def:ValueListDef OID=\"VL.LBORRESU\">\r\n        <ItemRef ItemOID=\"IT.LB.LBORRESU.1\" OrderNumber=\"1\" Mandatory=\"No\">\r\n          <def:WhereClauseRef WhereClauseOID=\"WC.LB_ORRESU_UNITS_ALT\"/>\r\n        </ItemRef>\r\n        <ItemRef ItemOID=\"IT.LB.LBORRESU.2\" OrderNumber=\"2\" Mandatory=\"No\">\r\n          <def:WhereClauseRef WhereClauseOID=\"WC.LB_ORRESU_UNITS_ALB\"/>\r\n        </ItemRef>\r\n        <ItemRef ItemOID=\"IT.LB.LBORRESU.3\" OrderNumber=\"3\" Mandatory=\"No\">\r\n          <def:WhereClauseRef WhereClauseOID=\"WC.LB_ORRESU_UNITS_ALP\"/>\r\n        </ItemRef>\r\n        <ItemRef ItemOID=\"IT.LB.LBORRESU.4\" OrderNumber=\"4\" Mandatory=\"No\">\r\n          <def:WhereClauseRef WhereClauseOID=\"WC.LB_ORRESU_UNITS_AST\"/>\r\n        </ItemRef>\r\n        <ItemRef ItemOID=\"IT.LB.LBORRESU.5\" OrderNumber=\"5\" Mandatory=\"No\">\r\n          <def:WhereClauseRef WhereClauseOID=\"WC.LB_ORRESU_UNITS_BASO\"/>\r\n        </ItemRef>\r\n        <ItemRef ItemOID=\"IT.LB.LBORRESU.6\" OrderNumber=\"6\" Mandatory=\"No\">\r\n          <def:WhereClauseRef WhereClauseOID=\"WC.LB_ORRESU_UNITS_BILI\"/>\r\n        </ItemRef>\r\n        <ItemRef ItemOID=\"IT.LB.LBORRESU.7\" OrderNumber=\"7\" Mandatory=\"No\">\r\n          <def:WhereClauseRef WhereClauseOID=\"WC.LB_ORRESU_UNITS_CA\"/>\r\n        </ItemRef>\r\n        <ItemRef ItemOID=\"IT.LB.LBORRESU.8\" OrderNumber=\"8\" Mandatory=\"No\">\r\n          <def:WhereClauseRef WhereClauseOID=\"WC.LB_ORRESU_UNITS_CL\"/>\r\n        </ItemRef>\r\n        <ItemRef ItemOID=\"IT.LB.LBORRESU.9\" OrderNumber=\"9\" Mandatory=\"No\">\r\n          <def:WhereClauseRef WhereClauseOID=\"WC.LB_ORRESU_UNITS_CHOL\"/>\r\n        </ItemRef>\r\n        <ItemRef ItemOID=\"IT.LB.LBORRESU.10\" OrderNumber=\"10\" Mandatory=\"No\">\r\n          <def:WhereClauseRef WhereClauseOID=\"WC.LB_ORRESU_UNITS_CK\"/>\r\n        </ItemRef>\r\n        <ItemRef ItemOID=\"IT.LB.LBORRESU.11\" OrderNumber=\"11\" Mandatory=\"No\">\r\n          <def:WhereClauseRef WhereClauseOID=\"WC.LB_ORRESU_UNITS_CREAT\"/>\r\n        </ItemRef>\r\n        <ItemRef ItemOID=\"IT.LB.LBORRESU.12\" OrderNumber=\"12\" Mandatory=\"No\">\r\n          <def:WhereClauseRef WhereClauseOID=\"WC.LB_ORRESU_UNITS_EOS\"/>\r\n        </ItemRef>\r\n        <ItemRef ItemOID=\"IT.LB.LBORRESU.13\" OrderNumber=\"13\" Mandatory=\"No\">\r\n          <def:WhereClauseRef WhereClauseOID=\"WC.LB_ORRESU_UNITS_MCH\"/>\r\n        </ItemRef>\r\n        <ItemRef ItemOID=\"IT.LB.LBORRESU.14\" OrderNumber=\"14\" Mandatory=\"No\">\r\n          <def:WhereClauseRef WhereClauseOID=\"WC.LB_ORRESU_UNITS_MCHC\"/>\r\n        </ItemRef>\r\n        <ItemRef ItemOID=\"IT.LB.LBORRESU.15\" OrderNumber=\"15\" Mandatory=\"No\">\r\n          <def:WhereClauseRef WhereClauseOID=\"WC.LB_ORRESU_UNITS_MCV\"/>\r\n        </ItemRef>\r\n        <ItemRef ItemOID=\"IT.LB.LBORRESU.16\" OrderNumber=\"16\" Mandatory=\"No\">\r\n          <def:WhereClauseRef WhereClauseOID=\"WC.LB_ORRESU_UNITS_RBC\"/>\r\n        </ItemRef>\r\n        <ItemRef ItemOID=\"IT.LB.LBORRESU.17\" OrderNumber=\"17\" Mandatory=\"No\">\r\n          <def:WhereClauseRef WhereClauseOID=\"WC.LB_ORRESU_UNITS_GGT\"/>\r\n        </ItemRef>\r\n        <ItemRef ItemOID=\"IT.LB.LBORRESU.18\" OrderNumber=\"18\" Mandatory=\"No\">\r\n          <def:WhereClauseRef WhereClauseOID=\"WC.LB_ORRESU_UNITS_GLUC\"/>\r\n        </ItemRef>\r\n        <ItemRef ItemOID=\"IT.LB.LBORRESU.19\" OrderNumber=\"19\" Mandatory=\"No\">\r\n          <def:WhereClauseRef WhereClauseOID=\"WC.LB_ORRESU_UNITS_HCT\"/>\r\n        </ItemRef>\r\n        <ItemRef ItemOID=\"IT.LB.LBORRESU.20\" OrderNumber=\"20\" Mandatory=\"No\">\r\n          <def:WhereClauseRef WhereClauseOID=\"WC.LB_ORRESU_UNITS_HGB\"/>\r\n        </ItemRef>\r\n        <ItemRef ItemOID=\"IT.LB.LBORRESU.21\" OrderNumber=\"21\" Mandatory=\"No\">\r\n          <def:WhereClauseRef WhereClauseOID=\"WC.LB_ORRESU_UNITS_WBC\"/>\r\n        </ItemRef>\r\n        <ItemRef ItemOID=\"IT.LB.LBORRESU.22\" OrderNumber=\"22\" Mandatory=\"No\">\r\n          <def:WhereClauseRef WhereClauseOID=\"WC.LB_ORRESU_UNITS_LYM\"/>\r\n        </ItemRef>\r\n        <ItemRef ItemOID=\"IT.LB.LBORRESU.23\" OrderNumber=\"23\" Mandatory=\"No\">\r\n          <def:WhereClauseRef WhereClauseOID=\"WC.LB_ORRESU_UNITS_MONO\"/>\r\n        </ItemRef>\r\n        <ItemRef ItemOID=\"IT.LB.LBORRESU.24\" OrderNumber=\"24\" Mandatory=\"No\">\r\n          <def:WhereClauseRef WhereClauseOID=\"WC.LB_ORRESU_UNITS_PHOS\"/>\r\n        </ItemRef>\r\n        <ItemRef ItemOID=\"IT.LB.LBORRESU.25\" OrderNumber=\"25\" Mandatory=\"No\">\r\n          <def:WhereClauseRef WhereClauseOID=\"WC.LB_ORRESU_UNITS_PLAT\"/>\r\n        </ItemRef>\r\n        <ItemRef ItemOID=\"IT.LB.LBORRESU.26\" OrderNumber=\"26\" Mandatory=\"No\">\r\n          <def:WhereClauseRef WhereClauseOID=\"WC.LB_ORRESU_UNITS_K\"/>\r\n        </ItemRef>\r\n        <ItemRef ItemOID=\"IT.LB.LBORRESU.27\" OrderNumber=\"27\" Mandatory=\"No\">\r\n          <def:WhereClauseRef WhereClauseOID=\"WC.LB_ORRESU_UNITS_PROT\"/>\r\n        </ItemRef>\r\n        <ItemRef ItemOID=\"IT.LB.LBORRESU.28\" OrderNumber=\"28\" Mandatory=\"No\">\r\n          <def:WhereClauseRef WhereClauseOID=\"WC.LB_ORRESU_UNITS_SODIUM\"/>\r\n        </ItemRef>\r\n        <ItemRef ItemOID=\"IT.LB.LBORRESU.29\" OrderNumber=\"29\" Mandatory=\"No\">\r\n          <def:WhereClauseRef WhereClauseOID=\"WC.LB_ORRESU_UNITS_TSH\"/>\r\n        </ItemRef>\r\n        <ItemRef ItemOID=\"IT.LB.LBORRESU.30\" OrderNumber=\"30\" Mandatory=\"No\">\r\n          <def:WhereClauseRef WhereClauseOID=\"WC.LB_ORRESU_UNITS_URATE\"/>\r\n        </ItemRef>\r\n        <ItemRef ItemOID=\"IT.LB.LBORRESU.31\" OrderNumber=\"31\" Mandatory=\"No\">\r\n          <def:WhereClauseRef WhereClauseOID=\"WC.LB_ORRESU_UNITS_UREAN\"/>\r\n        </ItemRef>\r\n        <ItemRef ItemOID=\"IT.LB.LBORRESU.32\" OrderNumber=\"32\" Mandatory=\"No\">\r\n          <def:WhereClauseRef WhereClauseOID=\"WC.LB_ORRESU_UNITS_VITB12\"/>\r\n        </ItemRef>\r\n      </def:ValueListDef>\r\n      <def:ValueListDef OID=\"VL.LBSTRESC\">\r\n        <ItemRef ItemOID=\"IT.LB.LBSTRESC.1\" OrderNumber=\"1\" Mandatory=\"No\">\r\n          <def:WhereClauseRef WhereClauseOID=\"WC.LB_STRESC_K\"/>\r\n        </ItemRef>\r\n        <ItemRef ItemOID=\"IT.LB.LBSTRESC.2\" OrderNumber=\"2\" Mandatory=\"No\">\r\n          <def:WhereClauseRef WhereClauseOID=\"WC.LB_STRESC_RBC\"/>\r\n        </ItemRef>\r\n        <ItemRef ItemOID=\"IT.LB.LBSTRESC.3\" OrderNumber=\"3\" Mandatory=\"No\">\r\n          <def:WhereClauseRef WhereClauseOID=\"WC.LB_STRESC_SET1\"/>\r\n        </ItemRef>\r\n        <ItemRef ItemOID=\"IT.LB.LBSTRESC.4\" OrderNumber=\"4\" Mandatory=\"No\">\r\n          <def:WhereClauseRef WhereClauseOID=\"WC.LB_STRESC_BILI\"/>\r\n        </ItemRef>\r\n        <ItemRef ItemOID=\"IT.LB.LBSTRESC.5\" OrderNumber=\"5\" Mandatory=\"No\">\r\n          <def:WhereClauseRef WhereClauseOID=\"WC.LB_STRESC_SET2\"/>\r\n        </ItemRef>\r\n        <ItemRef ItemOID=\"IT.LB.LBSTRESC.6\" OrderNumber=\"6\" Mandatory=\"No\">\r\n          <def:WhereClauseRef WhereClauseOID=\"WC.LB_STRESC_CREAT\"/>\r\n        </ItemRef>\r\n        <ItemRef ItemOID=\"IT.LB.LBSTRESC.7\" OrderNumber=\"7\" Mandatory=\"No\">\r\n          <def:WhereClauseRef WhereClauseOID=\"WC.LB_STRESC_URATE\"/>\r\n        </ItemRef>\r\n        <ItemRef ItemOID=\"IT.LB.LBSTRESC.8\" OrderNumber=\"8\" Mandatory=\"No\">\r\n          <def:WhereClauseRef WhereClauseOID=\"WC.LB_STRESC_MCHC\"/>\r\n        </ItemRef>\r\n        <ItemRef ItemOID=\"IT.LB.LBSTRESC.9\" OrderNumber=\"9\" Mandatory=\"No\">\r\n          <def:WhereClauseRef WhereClauseOID=\"WC.LB_STRESC_SET3\"/>\r\n        </ItemRef>\r\n        <ItemRef ItemOID=\"IT.LB.LBSTRESC.10\" OrderNumber=\"10\" Mandatory=\"No\">\r\n          <def:WhereClauseRef WhereClauseOID=\"WC.LB_STRESC_VITB12\"/>\r\n        </ItemRef>\r\n        <ItemRef ItemOID=\"IT.LB.LBSTRESC.11\" OrderNumber=\"11\" Mandatory=\"No\">\r\n          <def:WhereClauseRef WhereClauseOID=\"WC.LB_STRESC_HGB\"/>\r\n        </ItemRef>\r\n        <ItemRef ItemOID=\"IT.LB.LBSTRESC.12\" OrderNumber=\"12\" Mandatory=\"No\">\r\n          <def:WhereClauseRef WhereClauseOID=\"WC.LB_STRESC_SET4\"/>\r\n        </ItemRef>\r\n        <ItemRef ItemOID=\"IT.LB.LBSTRESC.13\" OrderNumber=\"13\" Mandatory=\"No\">\r\n          <def:WhereClauseRef WhereClauseOID=\"WC.LB_STRESC_SET5\"/>\r\n        </ItemRef>\r\n        <ItemRef ItemOID=\"IT.LB.LBSTRESC.14\" OrderNumber=\"14\" Mandatory=\"No\">\r\n          <def:WhereClauseRef WhereClauseOID=\"WC.LB_STRESC_SET6\"/>\r\n        </ItemRef>\r\n        <ItemRef ItemOID=\"IT.LB.LBSTRESC.15\" OrderNumber=\"15\" Mandatory=\"No\">\r\n          <def:WhereClauseRef WhereClauseOID=\"WC.LB_STRESC_CK\"/>\r\n        </ItemRef>\r\n        <ItemRef ItemOID=\"IT.LB.LBSTRESC.16\" OrderNumber=\"16\" Mandatory=\"No\">\r\n          <def:WhereClauseRef WhereClauseOID=\"WC.LB_STRESC_COLOR\"/>\r\n        </ItemRef>\r\n        <ItemRef ItemOID=\"IT.LB.LBSTRESC.17\" OrderNumber=\"17\" Mandatory=\"No\">\r\n          <def:WhereClauseRef WhereClauseOID=\"WC.LB_STRESC_GLUC\"/>\r\n        </ItemRef>\r\n      </def:ValueListDef>\r\n      <def:ValueListDef OID=\"VL.LBSTRESU\">\r\n        <ItemRef ItemOID=\"IT.LB.LBSTRESU.1\" OrderNumber=\"1\" Mandatory=\"No\">\r\n          <def:WhereClauseRef WhereClauseOID=\"WC.LB_STRESU_UNITS_ALT_STD\"/>\r\n        </ItemRef>\r\n        <ItemRef ItemOID=\"IT.LB.LBSTRESU.2\" OrderNumber=\"2\" Mandatory=\"No\">\r\n          <def:WhereClauseRef WhereClauseOID=\"WC.LB_STRESU_UNITS_ALB_STD\"/>\r\n        </ItemRef>\r\n        <ItemRef ItemOID=\"IT.LB.LBSTRESU.3\" OrderNumber=\"3\" Mandatory=\"No\">\r\n          <def:WhereClauseRef WhereClauseOID=\"WC.LB_STRESU_UNITS_ALP_STD\"/>\r\n        </ItemRef>\r\n        <ItemRef ItemOID=\"IT.LB.LBSTRESU.4\" OrderNumber=\"4\" Mandatory=\"No\">\r\n          <def:WhereClauseRef WhereClauseOID=\"WC.LB_STRESU_UNITS_AST_STD\"/>\r\n        </ItemRef>\r\n        <ItemRef ItemOID=\"IT.LB.LBSTRESU.5\" OrderNumber=\"5\" Mandatory=\"No\">\r\n          <def:WhereClauseRef WhereClauseOID=\"WC.LB_STRESU_UNITS_BASO_STD\"/>\r\n        </ItemRef>\r\n        <ItemRef ItemOID=\"IT.LB.LBSTRESU.6\" OrderNumber=\"6\" Mandatory=\"No\">\r\n          <def:WhereClauseRef WhereClauseOID=\"WC.LB_STRESU_UNITS_BILI_STD\"/>\r\n        </ItemRef>\r\n        <ItemRef ItemOID=\"IT.LB.LBSTRESU.7\" OrderNumber=\"7\" Mandatory=\"No\">\r\n          <def:WhereClauseRef WhereClauseOID=\"WC.LB_STRESU_UNITS_CA_STD\"/>\r\n        </ItemRef>\r\n        <ItemRef ItemOID=\"IT.LB.LBSTRESU.8\" OrderNumber=\"8\" Mandatory=\"No\">\r\n          <def:WhereClauseRef WhereClauseOID=\"WC.LB_STRESU_UNITS_CL_STD\"/>\r\n        </ItemRef>\r\n        <ItemRef ItemOID=\"IT.LB.LBSTRESU.9\" OrderNumber=\"9\" Mandatory=\"No\">\r\n          <def:WhereClauseRef WhereClauseOID=\"WC.LB_STRESU_UNITS_CHOL_STD\"/>\r\n        </ItemRef>\r\n        <ItemRef ItemOID=\"IT.LB.LBSTRESU.10\" OrderNumber=\"10\" Mandatory=\"No\">\r\n          <def:WhereClauseRef WhereClauseOID=\"WC.LB_STRESU_UNITS_CK_STD\"/>\r\n        </ItemRef>\r\n        <ItemRef ItemOID=\"IT.LB.LBSTRESU.11\" OrderNumber=\"11\" Mandatory=\"No\">\r\n          <def:WhereClauseRef WhereClauseOID=\"WC.LB_STRESU_UNITS_CREAT_STD\"/>\r\n        </ItemRef>\r\n        <ItemRef ItemOID=\"IT.LB.LBSTRESU.12\" OrderNumber=\"12\" Mandatory=\"No\">\r\n          <def:WhereClauseRef WhereClauseOID=\"WC.LB_STRESU_UNITS_EOS_STD\"/>\r\n        </ItemRef>\r\n        <ItemRef ItemOID=\"IT.LB.LBSTRESU.13\" OrderNumber=\"13\" Mandatory=\"No\">\r\n          <def:WhereClauseRef WhereClauseOID=\"WC.LB_STRESU_UNITS_MCH_STD\"/>\r\n        </ItemRef>\r\n        <ItemRef ItemOID=\"IT.LB.LBSTRESU.14\" OrderNumber=\"14\" Mandatory=\"No\">\r\n          <def:WhereClauseRef WhereClauseOID=\"WC.LB_STRESU_UNITS_MCHC_STD\"/>\r\n        </ItemRef>\r\n        <ItemRef ItemOID=\"IT.LB.LBSTRESU.15\" OrderNumber=\"15\" Mandatory=\"No\">\r\n          <def:WhereClauseRef WhereClauseOID=\"WC.LB_STRESU_UNITS_MCV_STD\"/>\r\n        </ItemRef>\r\n        <ItemRef ItemOID=\"IT.LB.LBSTRESU.16\" OrderNumber=\"16\" Mandatory=\"No\">\r\n          <def:WhereClauseRef WhereClauseOID=\"WC.LB_STRESU_UNITS_RBC_STD\"/>\r\n        </ItemRef>\r\n        <ItemRef ItemOID=\"IT.LB.LBSTRESU.17\" OrderNumber=\"17\" Mandatory=\"No\">\r\n          <def:WhereClauseRef WhereClauseOID=\"WC.LB_STRESU_UNITS_GGT_STD\"/>\r\n        </ItemRef>\r\n        <ItemRef ItemOID=\"IT.LB.LBSTRESU.18\" OrderNumber=\"18\" Mandatory=\"No\">\r\n          <def:WhereClauseRef WhereClauseOID=\"WC.LB_STRESU_UNITS_GLUC_STD\"/>\r\n        </ItemRef>\r\n        <ItemRef ItemOID=\"IT.LB.LBSTRESU.19\" OrderNumber=\"19\" Mandatory=\"No\">\r\n          <def:WhereClauseRef WhereClauseOID=\"WC.LB_STRESU_UNITS_HGB_STD\"/>\r\n        </ItemRef>\r\n        <ItemRef ItemOID=\"IT.LB.LBSTRESU.20\" OrderNumber=\"20\" Mandatory=\"No\">\r\n          <def:WhereClauseRef WhereClauseOID=\"WC.LB_STRESU_UNITS_WBC_STD\"/>\r\n        </ItemRef>\r\n        <ItemRef ItemOID=\"IT.LB.LBSTRESU.21\" OrderNumber=\"21\" Mandatory=\"No\">\r\n          <def:WhereClauseRef WhereClauseOID=\"WC.LB_STRESU_UNITS_LYM_STD\"/>\r\n        </ItemRef>\r\n        <ItemRef ItemOID=\"IT.LB.LBSTRESU.22\" OrderNumber=\"22\" Mandatory=\"No\">\r\n          <def:WhereClauseRef WhereClauseOID=\"WC.LB_STRESU_UNITS_MONO_STD\"/>\r\n        </ItemRef>\r\n        <ItemRef ItemOID=\"IT.LB.LBSTRESU.23\" OrderNumber=\"23\" Mandatory=\"No\">\r\n          <def:WhereClauseRef WhereClauseOID=\"WC.LB_STRESU_UNITS_PHOS_STD\"/>\r\n        </ItemRef>\r\n        <ItemRef ItemOID=\"IT.LB.LBSTRESU.24\" OrderNumber=\"24\" Mandatory=\"No\">\r\n          <def:WhereClauseRef WhereClauseOID=\"WC.LB_STRESU_UNITS_PLAT_STD\"/>\r\n        </ItemRef>\r\n        <ItemRef ItemOID=\"IT.LB.LBSTRESU.25\" OrderNumber=\"25\" Mandatory=\"No\">\r\n          <def:WhereClauseRef WhereClauseOID=\"WC.LB_STRESU_UNITS_K_STD\"/>\r\n        </ItemRef>\r\n        <ItemRef ItemOID=\"IT.LB.LBSTRESU.26\" OrderNumber=\"26\" Mandatory=\"No\">\r\n          <def:WhereClauseRef WhereClauseOID=\"WC.LB_STRESU_UNITS_PROT_STD\"/>\r\n        </ItemRef>\r\n        <ItemRef ItemOID=\"IT.LB.LBSTRESU.27\" OrderNumber=\"27\" Mandatory=\"No\">\r\n          <def:WhereClauseRef WhereClauseOID=\"WC.LB_STRESU_UNITS_SODIUM_STD\"/>\r\n        </ItemRef>\r\n        <ItemRef ItemOID=\"IT.LB.LBSTRESU.28\" OrderNumber=\"28\" Mandatory=\"No\">\r\n          <def:WhereClauseRef WhereClauseOID=\"WC.LB_STRESU_UNITS_TSH_STD\"/>\r\n        </ItemRef>\r\n        <ItemRef ItemOID=\"IT.LB.LBSTRESU.29\" OrderNumber=\"29\" Mandatory=\"No\">\r\n          <def:WhereClauseRef WhereClauseOID=\"WC.LB_STRESU_UNITS_URATE_STD\"/>\r\n        </ItemRef>\r\n        <ItemRef ItemOID=\"IT.LB.LBSTRESU.30\" OrderNumber=\"30\" Mandatory=\"No\">\r\n          <def:WhereClauseRef WhereClauseOID=\"WC.LB_STRESU_UNITS_UREAN_STD\"/>\r\n        </ItemRef>\r\n        <ItemRef ItemOID=\"IT.LB.LBSTRESU.31\" OrderNumber=\"31\" Mandatory=\"No\">\r\n          <def:WhereClauseRef WhereClauseOID=\"WC.LB_STRESU_UNITS_VITB12_STD\"/>\r\n        </ItemRef>\r\n      </def:ValueListDef>\r\n      <def:ValueListDef OID=\"VL.OEORRES\">\r\n        <ItemRef ItemOID=\"IT.OE.OEORRES.1\" OrderNumber=\"1\" Mandatory=\"No\">\r\n          <def:WhereClauseRef WhereClauseOID=\"WC.OEORRES1\"/>\r\n        </ItemRef>\r\n        <ItemRef ItemOID=\"IT.OE.OEORRES.2\" OrderNumber=\"2\" Mandatory=\"No\">\r\n          <def:WhereClauseRef WhereClauseOID=\"WC.OEORRES2\"/>\r\n        </ItemRef>\r\n      </def:ValueListDef>\r\n      <def:ValueListDef OID=\"VL.QSORRES_PHQ\">\r\n        <ItemRef ItemOID=\"IT.QSPH.QSORRES.1\" OrderNumber=\"1\" Mandatory=\"Yes\">\r\n          <def:WhereClauseRef WhereClauseOID=\"WC.PHQ0101-09\"/>\r\n        </ItemRef>\r\n        <ItemRef ItemOID=\"IT.QSPH.QSORRES.2\" OrderNumber=\"2\" Mandatory=\"Yes\">\r\n          <def:WhereClauseRef WhereClauseOID=\"WC.PHQ0110\"/>\r\n        </ItemRef>\r\n        <ItemRef ItemOID=\"IT.QSPH.QSORRES.3\" OrderNumber=\"3\" Mandatory=\"Yes\">\r\n          <def:WhereClauseRef WhereClauseOID=\"WC.PHQ0111\"/>\r\n        </ItemRef>\r\n      </def:ValueListDef>\r\n      <def:ValueListDef OID=\"VL.QSSTRESC_PHQ\">\r\n        <ItemRef ItemOID=\"IT.QSPH.QSSTRESC.1\" OrderNumber=\"1\" Mandatory=\"Yes\" MethodOID=\"MT.QSSTRESC_PH\">\r\n          <def:WhereClauseRef WhereClauseOID=\"WC.PHQ0101-09S\"/>\r\n        </ItemRef>\r\n        <ItemRef ItemOID=\"IT.QSPH.QSSTRESC.2\" OrderNumber=\"2\" Mandatory=\"Yes\" MethodOID=\"MT.QSSTRESC_PH_10_11\">\r\n          <def:WhereClauseRef WhereClauseOID=\"WC.PHQ0110S\"/>\r\n        </ItemRef>\r\n        <ItemRef ItemOID=\"IT.QSPH.QSSTRESC.3\" OrderNumber=\"3\" Mandatory=\"Yes\">\r\n          <def:WhereClauseRef WhereClauseOID=\"WC.PHQ0111S\"/>\r\n        </ItemRef>\r\n      </def:ValueListDef>\r\n      <def:ValueListDef OID=\"VL.RACE\">\r\n        <ItemRef ItemOID=\"IT.DM.RACE.1\" OrderNumber=\"1\" Mandatory=\"Yes\">\r\n          <def:WhereClauseRef WhereClauseOID=\"WC.RACE\"/>\r\n        </ItemRef>\r\n        <ItemRef ItemOID=\"IT.DM.RACE.2\" OrderNumber=\"2\" Mandatory=\"Yes\">\r\n          <def:WhereClauseRef WhereClauseOID=\"WC.RACEMULT\"/>\r\n        </ItemRef>\r\n      </def:ValueListDef>\r\n      <def:ValueListDef OID=\"VL.RSORRES\">\r\n        <ItemRef ItemOID=\"IT.RS.RSORRES.1\" OrderNumber=\"1\" Mandatory=\"No\">\r\n          <def:WhereClauseRef WhereClauseOID=\"WC.HAMD101\"/>\r\n        </ItemRef>\r\n        <ItemRef ItemOID=\"IT.RS.RSORRES.2\" OrderNumber=\"2\" Mandatory=\"No\">\r\n          <def:WhereClauseRef WhereClauseOID=\"WC.HAMD102\"/>\r\n        </ItemRef>\r\n        <ItemRef ItemOID=\"IT.RS.RSORRES.3\" OrderNumber=\"3\" Mandatory=\"No\">\r\n          <def:WhereClauseRef WhereClauseOID=\"WC.HAMD103\"/>\r\n        </ItemRef>\r\n        <ItemRef ItemOID=\"IT.RS.RSORRES.4\" OrderNumber=\"4\" Mandatory=\"No\">\r\n          <def:WhereClauseRef WhereClauseOID=\"WC.HAMD104\"/>\r\n        </ItemRef>\r\n        <ItemRef ItemOID=\"IT.RS.RSORRES.5\" OrderNumber=\"5\" Mandatory=\"No\">\r\n          <def:WhereClauseRef WhereClauseOID=\"WC.HAMD105\"/>\r\n        </ItemRef>\r\n        <ItemRef ItemOID=\"IT.RS.RSORRES.6\" OrderNumber=\"6\" Mandatory=\"No\">\r\n          <def:WhereClauseRef WhereClauseOID=\"WC.HAMD106\"/>\r\n        </ItemRef>\r\n        <ItemRef ItemOID=\"IT.RS.RSORRES.7\" OrderNumber=\"7\" Mandatory=\"No\">\r\n          <def:WhereClauseRef WhereClauseOID=\"WC.HAMD107\"/>\r\n        </ItemRef>\r\n        <ItemRef ItemOID=\"IT.RS.RSORRES.8\" OrderNumber=\"8\" Mandatory=\"No\">\r\n          <def:WhereClauseRef WhereClauseOID=\"WC.HAMD108\"/>\r\n        </ItemRef>\r\n        <ItemRef ItemOID=\"IT.RS.RSORRES.9\" OrderNumber=\"9\" Mandatory=\"No\">\r\n          <def:WhereClauseRef WhereClauseOID=\"WC.HAMD109\"/>\r\n        </ItemRef>\r\n        <ItemRef ItemOID=\"IT.RS.RSORRES.10\" OrderNumber=\"10\" Mandatory=\"No\">\r\n          <def:WhereClauseRef WhereClauseOID=\"WC.HAMD110\"/>\r\n        </ItemRef>\r\n        <ItemRef ItemOID=\"IT.RS.RSORRES.11\" OrderNumber=\"11\" Mandatory=\"No\">\r\n          <def:WhereClauseRef WhereClauseOID=\"WC.HAMD111\"/>\r\n        </ItemRef>\r\n        <ItemRef ItemOID=\"IT.RS.RSORRES.12\" OrderNumber=\"12\" Mandatory=\"No\">\r\n          <def:WhereClauseRef WhereClauseOID=\"WC.HAMD112\"/>\r\n        </ItemRef>\r\n        <ItemRef ItemOID=\"IT.RS.RSORRES.13\" OrderNumber=\"13\" Mandatory=\"No\">\r\n          <def:WhereClauseRef WhereClauseOID=\"WC.HAMD113\"/>\r\n        </ItemRef>\r\n        <ItemRef ItemOID=\"IT.RS.RSORRES.14\" OrderNumber=\"14\" Mandatory=\"No\">\r\n          <def:WhereClauseRef WhereClauseOID=\"WC.HAMD114\"/>\r\n        </ItemRef>\r\n        <ItemRef ItemOID=\"IT.RS.RSORRES.15\" OrderNumber=\"15\" Mandatory=\"No\">\r\n          <def:WhereClauseRef WhereClauseOID=\"WC.HAMD115\"/>\r\n        </ItemRef>\r\n        <ItemRef ItemOID=\"IT.RS.RSORRES.16\" OrderNumber=\"16\" Mandatory=\"No\">\r\n          <def:WhereClauseRef WhereClauseOID=\"WC.HAMD116A\"/>\r\n        </ItemRef>\r\n        <ItemRef ItemOID=\"IT.RS.RSORRES.17\" OrderNumber=\"17\" Mandatory=\"No\">\r\n          <def:WhereClauseRef WhereClauseOID=\"WC.HAMD116B\"/>\r\n        </ItemRef>\r\n        <ItemRef ItemOID=\"IT.RS.RSORRES.18\" OrderNumber=\"18\" Mandatory=\"No\">\r\n          <def:WhereClauseRef WhereClauseOID=\"WC.HAMD117\"/>\r\n        </ItemRef>\r\n        <ItemRef ItemOID=\"IT.RS.RSORRES.19\" OrderNumber=\"19\" Mandatory=\"No\">\r\n          <def:WhereClauseRef WhereClauseOID=\"WC.HAMD118\"/>\r\n        </ItemRef>\r\n      </def:ValueListDef>\r\n      <def:ValueListDef OID=\"VL.RSSTRESC\">\r\n        <ItemRef ItemOID=\"IT.RS.RSSTRESC.1\" OrderNumber=\"1\" Mandatory=\"No\">\r\n          <def:WhereClauseRef WhereClauseOID=\"WC.HAMD101S\"/>\r\n        </ItemRef>\r\n        <ItemRef ItemOID=\"IT.RS.RSSTRESC.2\" OrderNumber=\"2\" Mandatory=\"No\">\r\n          <def:WhereClauseRef WhereClauseOID=\"WC.HAMD102S\"/>\r\n        </ItemRef>\r\n        <ItemRef ItemOID=\"IT.RS.RSSTRESC.3\" OrderNumber=\"3\" Mandatory=\"No\">\r\n          <def:WhereClauseRef WhereClauseOID=\"WC.HAMD103S\"/>\r\n        </ItemRef>\r\n        <ItemRef ItemOID=\"IT.RS.RSSTRESC.4\" OrderNumber=\"4\" Mandatory=\"No\">\r\n          <def:WhereClauseRef WhereClauseOID=\"WC.HAMD104S\"/>\r\n        </ItemRef>\r\n        <ItemRef ItemOID=\"IT.RS.RSSTRESC.5\" OrderNumber=\"5\" Mandatory=\"No\">\r\n          <def:WhereClauseRef WhereClauseOID=\"WC.HAMD105S\"/>\r\n        </ItemRef>\r\n        <ItemRef ItemOID=\"IT.RS.RSSTRESC.6\" OrderNumber=\"6\" Mandatory=\"No\">\r\n          <def:WhereClauseRef WhereClauseOID=\"WC.HAMD106S\"/>\r\n        </ItemRef>\r\n        <ItemRef ItemOID=\"IT.RS.RSSTRESC.7\" OrderNumber=\"7\" Mandatory=\"No\">\r\n          <def:WhereClauseRef WhereClauseOID=\"WC.HAMD107S\"/>\r\n        </ItemRef>\r\n        <ItemRef ItemOID=\"IT.RS.RSSTRESC.8\" OrderNumber=\"8\" Mandatory=\"No\">\r\n          <def:WhereClauseRef WhereClauseOID=\"WC.HAMD108S\"/>\r\n        </ItemRef>\r\n        <ItemRef ItemOID=\"IT.RS.RSSTRESC.9\" OrderNumber=\"9\" Mandatory=\"No\">\r\n          <def:WhereClauseRef WhereClauseOID=\"WC.HAMD109S\"/>\r\n        </ItemRef>\r\n        <ItemRef ItemOID=\"IT.RS.RSSTRESC.10\" OrderNumber=\"10\" Mandatory=\"No\">\r\n          <def:WhereClauseRef WhereClauseOID=\"WC.HAMD110S\"/>\r\n        </ItemRef>\r\n        <ItemRef ItemOID=\"IT.RS.RSSTRESC.11\" OrderNumber=\"11\" Mandatory=\"No\">\r\n          <def:WhereClauseRef WhereClauseOID=\"WC.HAMD111S\"/>\r\n        </ItemRef>\r\n        <ItemRef ItemOID=\"IT.RS.RSSTRESC.12\" OrderNumber=\"12\" Mandatory=\"No\">\r\n          <def:WhereClauseRef WhereClauseOID=\"WC.HAMD112S\"/>\r\n        </ItemRef>\r\n        <ItemRef ItemOID=\"IT.RS.RSSTRESC.13\" OrderNumber=\"13\" Mandatory=\"No\">\r\n          <def:WhereClauseRef WhereClauseOID=\"WC.HAMD113S\"/>\r\n        </ItemRef>\r\n        <ItemRef ItemOID=\"IT.RS.RSSTRESC.14\" OrderNumber=\"14\" Mandatory=\"No\">\r\n          <def:WhereClauseRef WhereClauseOID=\"WC.HAMD114S\"/>\r\n        </ItemRef>\r\n        <ItemRef ItemOID=\"IT.RS.RSSTRESC.15\" OrderNumber=\"15\" Mandatory=\"No\">\r\n          <def:WhereClauseRef WhereClauseOID=\"WC.HAMD115S\"/>\r\n        </ItemRef>\r\n        <ItemRef ItemOID=\"IT.RS.RSSTRESC.16\" OrderNumber=\"16\" Mandatory=\"No\">\r\n          <def:WhereClauseRef WhereClauseOID=\"WC.HAMD116AS\"/>\r\n        </ItemRef>\r\n        <ItemRef ItemOID=\"IT.RS.RSSTRESC.17\" OrderNumber=\"17\" Mandatory=\"No\">\r\n          <def:WhereClauseRef WhereClauseOID=\"WC.HAMD116BS\"/>\r\n        </ItemRef>\r\n        <ItemRef ItemOID=\"IT.RS.RSSTRESC.18\" OrderNumber=\"18\" Mandatory=\"No\">\r\n          <def:WhereClauseRef WhereClauseOID=\"WC.HAMD117S\"/>\r\n        </ItemRef>\r\n        <ItemRef ItemOID=\"IT.RS.RSSTRESC.19\" OrderNumber=\"19\" Mandatory=\"No\">\r\n          <def:WhereClauseRef WhereClauseOID=\"WC.HAMD118S\"/>\r\n        </ItemRef>\r\n      </def:ValueListDef>\r\n      <def:ValueListDef OID=\"VL.SUPPDM\">\r\n        <ItemRef ItemOID=\"IT.SUPPDM.QVAL.1\" OrderNumber=\"1\" Mandatory=\"Yes\"\r\n         Role=\"Result Qualifier\">\r\n          <def:WhereClauseRef WhereClauseOID=\"WC.RACE1\"/>\r\n        </ItemRef>\r\n        <ItemRef ItemOID=\"IT.SUPPDM.QVAL.2\" OrderNumber=\"2\" Mandatory=\"Yes\"\r\n         Role=\"Result Qualifier\">\r\n          <def:WhereClauseRef WhereClauseOID=\"WC.RACE2\"/>\r\n        </ItemRef>\r\n        <ItemRef ItemOID=\"IT.SUPPDM.QVAL.3\" OrderNumber=\"3\" Mandatory=\"Yes\"\r\n         Role=\"Result Qualifier\">\r\n          <def:WhereClauseRef WhereClauseOID=\"WC.RACE3\"/>\r\n        </ItemRef>\r\n        <ItemRef ItemOID=\"IT.SUPPDM.QVAL.4\" OrderNumber=\"4\" Mandatory=\"Yes\"\r\n         Role=\"Result Qualifier\" def:HasNoData=\"Yes\">\r\n          <def:WhereClauseRef WhereClauseOID=\"WC.RACE4\"/>\r\n        </ItemRef>\r\n        <ItemRef ItemOID=\"IT.SUPPDM.QVAL.5\" OrderNumber=\"5\" Mandatory=\"Yes\"\r\n         Role=\"Result Qualifier\" def:HasNoData=\"Yes\">\r\n          <def:WhereClauseRef WhereClauseOID=\"WC.RACE5\"/>\r\n        </ItemRef>\r\n      </def:ValueListDef>\r\n      <def:ValueListDef OID=\"VL.SUPPEC\">\r\n        <ItemRef ItemOID=\"IT.SUPPEC.QVAL.1\" OrderNumber=\"1\" Mandatory=\"Yes\"\r\n         Role=\"Variable Qualifier\">\r\n          <def:WhereClauseRef WhereClauseOID=\"WC.ECREASOC\"/>\r\n        </ItemRef>\r\n      </def:ValueListDef>\r\n      <def:ValueListDef OID=\"VL.SUPPNV\">\r\n        <ItemRef ItemOID=\"IT.SUPPNV.QVAL.1\" OrderNumber=\"1\" Mandatory=\"Yes\"\r\n         Role=\"Result Qualifier\">\r\n          <def:WhereClauseRef WhereClauseOID=\"WC.NVCLSIG\"/>\r\n        </ItemRef>\r\n      </def:ValueListDef>\r\n      <def:ValueListDef OID=\"VL.SUPPOE\">\r\n        <ItemRef ItemOID=\"IT.SUPPOE.QVAL.1\" OrderNumber=\"1\" Mandatory=\"No\"\r\n         Role=\"Result Qualifier\">\r\n          <def:WhereClauseRef WhereClauseOID=\"WC.OECLSIG\"/>\r\n        </ItemRef>\r\n      </def:ValueListDef>\r\n      <def:ValueListDef OID=\"VL.TSVAL\">\r\n        <ItemRef ItemOID=\"IT.TS.TSVAL.1\" OrderNumber=\"1\" Mandatory=\"No\">\r\n          <def:WhereClauseRef WhereClauseOID=\"WC.TS_YN\"/>\r\n        </ItemRef>\r\n        <ItemRef ItemOID=\"IT.TS.TSVAL.2\" OrderNumber=\"2\" Mandatory=\"No\">\r\n          <def:WhereClauseRef WhereClauseOID=\"WC.TS_INTEGER\"/>\r\n        </ItemRef>\r\n        <ItemRef ItemOID=\"IT.TS.TSVAL.3\" OrderNumber=\"3\" Mandatory=\"No\">\r\n          <def:WhereClauseRef WhereClauseOID=\"WC.TS_DATE\"/>\r\n        </ItemRef>\r\n        <ItemRef ItemOID=\"IT.TS.TSVAL.4\" OrderNumber=\"4\" Mandatory=\"No\">\r\n          <def:WhereClauseRef WhereClauseOID=\"WC.TS_FRM\"/>\r\n        </ItemRef>\r\n        <ItemRef ItemOID=\"IT.TS.TSVAL.5\" OrderNumber=\"5\" Mandatory=\"No\">\r\n          <def:WhereClauseRef WhereClauseOID=\"WC.TS_FREQ\"/>\r\n        </ItemRef>\r\n        <ItemRef ItemOID=\"IT.TS.TSVAL.6\" OrderNumber=\"6\" Mandatory=\"No\">\r\n          <def:WhereClauseRef WhereClauseOID=\"WC.TS_UNIT\"/>\r\n        </ItemRef>\r\n        <ItemRef ItemOID=\"IT.TS.TSVAL.7\" OrderNumber=\"7\" Mandatory=\"No\">\r\n          <def:WhereClauseRef WhereClauseOID=\"WC.TS_COUNTRY\"/>\r\n        </ItemRef>\r\n        <ItemRef ItemOID=\"IT.TS.TSVAL.8\" OrderNumber=\"8\" Mandatory=\"No\">\r\n          <def:WhereClauseRef WhereClauseOID=\"WC.TS_INDIC\"/>\r\n        </ItemRef>\r\n        <ItemRef ItemOID=\"IT.TS.TSVAL.9\" OrderNumber=\"9\" Mandatory=\"No\">\r\n          <def:WhereClauseRef WhereClauseOID=\"WC.TS_MODEL\"/>\r\n        </ItemRef>\r\n        <ItemRef ItemOID=\"IT.TS.TSVAL.10\" OrderNumber=\"10\" Mandatory=\"No\">\r\n          <def:WhereClauseRef WhereClauseOID=\"WC.TS_INTTYPE\"/>\r\n        </ItemRef>\r\n        <ItemRef ItemOID=\"IT.TS.TSVAL.11\" OrderNumber=\"11\" Mandatory=\"No\">\r\n          <def:WhereClauseRef WhereClauseOID=\"WC.TS_DURATION\"/>\r\n        </ItemRef>\r\n        <ItemRef ItemOID=\"IT.TS.TSVAL.12\" OrderNumber=\"12\" Mandatory=\"No\">\r\n          <def:WhereClauseRef WhereClauseOID=\"WC.TS_OBJPRIM\"/>\r\n        </ItemRef>\r\n        <ItemRef ItemOID=\"IT.TS.TSVAL.13\" OrderNumber=\"13\" Mandatory=\"No\">\r\n          <def:WhereClauseRef WhereClauseOID=\"WC.TS_OBJSEC\"/>\r\n        </ItemRef>\r\n        <ItemRef ItemOID=\"IT.TS.TSVAL.14\" OrderNumber=\"14\" Mandatory=\"No\">\r\n          <def:WhereClauseRef WhereClauseOID=\"WC.TS_OUTMSPRI\"/>\r\n        </ItemRef>\r\n        <ItemRef ItemOID=\"IT.TS.TSVAL.15\" OrderNumber=\"15\" Mandatory=\"No\">\r\n          <def:WhereClauseRef WhereClauseOID=\"WC.TS_PCLAS\"/>\r\n        </ItemRef>\r\n        <ItemRef ItemOID=\"IT.TS.TSVAL.16\" OrderNumber=\"16\" Mandatory=\"No\">\r\n          <def:WhereClauseRef WhereClauseOID=\"WC.TS_FLOAT\"/>\r\n        </ItemRef>\r\n        <ItemRef ItemOID=\"IT.TS.TSVAL.17\" OrderNumber=\"17\" Mandatory=\"No\">\r\n          <def:WhereClauseRef WhereClauseOID=\"WC.TS_REGID\"/>\r\n        </ItemRef>\r\n        <ItemRef ItemOID=\"IT.TS.TSVAL.18\" OrderNumber=\"18\" Mandatory=\"No\">\r\n          <def:WhereClauseRef WhereClauseOID=\"WC.TS_ROUTE\"/>\r\n        </ItemRef>\r\n        <ItemRef ItemOID=\"IT.TS.TSVAL.19\" OrderNumber=\"19\" Mandatory=\"No\">\r\n          <def:WhereClauseRef WhereClauseOID=\"WC.TS_SDTM\"/>\r\n        </ItemRef>\r\n        <ItemRef ItemOID=\"IT.TS.TSVAL.20\" OrderNumber=\"20\" Mandatory=\"No\">\r\n          <def:WhereClauseRef WhereClauseOID=\"WC.TS_SEX\"/>\r\n        </ItemRef>\r\n        <ItemRef ItemOID=\"IT.TS.TSVAL.21\" OrderNumber=\"21\" Mandatory=\"No\">\r\n          <def:WhereClauseRef WhereClauseOID=\"WC.TS_SPONSOR\"/>\r\n        </ItemRef>\r\n        <ItemRef ItemOID=\"IT.TS.TSVAL.22\" OrderNumber=\"22\" Mandatory=\"No\">\r\n          <def:WhereClauseRef WhereClauseOID=\"WC.TS_STOPRULE\"/>\r\n        </ItemRef>\r\n        <ItemRef ItemOID=\"IT.TS.TSVAL.23\" OrderNumber=\"23\" Mandatory=\"No\">\r\n          <def:WhereClauseRef WhereClauseOID=\"WC.TS_STYPE\"/>\r\n        </ItemRef>\r\n        <ItemRef ItemOID=\"IT.TS.TSVAL.24\" OrderNumber=\"24\" Mandatory=\"No\">\r\n          <def:WhereClauseRef WhereClauseOID=\"WC.TS_BLIND\"/>\r\n        </ItemRef>\r\n        <ItemRef ItemOID=\"IT.TS.TSVAL.25\" OrderNumber=\"25\" Mandatory=\"No\">\r\n          <def:WhereClauseRef WhereClauseOID=\"WC.TS_CONTROL\"/>\r\n        </ItemRef>\r\n        <ItemRef ItemOID=\"IT.TS.TSVAL.26\" OrderNumber=\"26\" Mandatory=\"No\">\r\n          <def:WhereClauseRef WhereClauseOID=\"WC.TS_TDIGRP\"/>\r\n        </ItemRef>\r\n        <ItemRef ItemOID=\"IT.TS.TSVAL.27\" OrderNumber=\"27\" Mandatory=\"No\">\r\n          <def:WhereClauseRef WhereClauseOID=\"WC.TS_TINDTP\"/>\r\n        </ItemRef>\r\n        <ItemRef ItemOID=\"IT.TS.TSVAL.28\" OrderNumber=\"28\" Mandatory=\"No\">\r\n          <def:WhereClauseRef WhereClauseOID=\"WC.TS_TITLE\"/>\r\n        </ItemRef>\r\n        <ItemRef ItemOID=\"IT.TS.TSVAL.29\" OrderNumber=\"29\" Mandatory=\"No\">\r\n          <def:WhereClauseRef WhereClauseOID=\"WC.TS_PHASE\"/>\r\n        </ItemRef>\r\n        <ItemRef ItemOID=\"IT.TS.TSVAL.30\" OrderNumber=\"30\" Mandatory=\"No\">\r\n          <def:WhereClauseRef WhereClauseOID=\"WC.TS_TRT\"/>\r\n        </ItemRef>\r\n        <ItemRef ItemOID=\"IT.TS.TSVAL.31\" OrderNumber=\"31\" Mandatory=\"No\">\r\n          <def:WhereClauseRef WhereClauseOID=\"WC.TS_TTYPE\"/>\r\n        </ItemRef>\r\n      </def:ValueListDef>\r\n      <def:ValueListDef OID=\"VL.VSORRES\">\r\n        <ItemRef ItemOID=\"IT.VS.VSORRES.1\" OrderNumber=\"1\" Mandatory=\"No\">\r\n          <def:WhereClauseRef WhereClauseOID=\"WC.BP\"/>\r\n        </ItemRef>\r\n        <ItemRef ItemOID=\"IT.VS.VSORRES.2\" OrderNumber=\"2\" Mandatory=\"No\">\r\n          <def:WhereClauseRef WhereClauseOID=\"WC.HEIGHT\"/>\r\n        </ItemRef>\r\n        <ItemRef ItemOID=\"IT.VS.VSORRES.3\" OrderNumber=\"3\" Mandatory=\"No\">\r\n          <def:WhereClauseRef WhereClauseOID=\"WC.PULSE\"/>\r\n        </ItemRef>\r\n        <ItemRef ItemOID=\"IT.VS.VSORRES.5\" OrderNumber=\"4\" Mandatory=\"No\">\r\n          <def:WhereClauseRef WhereClauseOID=\"WC.TEMP\"/>\r\n        </ItemRef>\r\n        <ItemRef ItemOID=\"IT.VS.VSORRES.6\" OrderNumber=\"5\" Mandatory=\"No\">\r\n          <def:WhereClauseRef WhereClauseOID=\"WC.WEIGHT\"/>\r\n        </ItemRef>\r\n      </def:ValueListDef>\r\n      <def:ValueListDef OID=\"VL.VSORRESU\">\r\n        <ItemRef ItemOID=\"IT.VS.VSORRESU.1\" OrderNumber=\"1\" Mandatory=\"No\">\r\n          <def:WhereClauseRef WhereClauseOID=\"WC.BP\"/>\r\n        </ItemRef>\r\n        <ItemRef ItemOID=\"IT.VS.VSORRESU.2\" OrderNumber=\"2\" Mandatory=\"No\">\r\n          <def:WhereClauseRef WhereClauseOID=\"WC.HEIGHTU\"/>\r\n        </ItemRef>\r\n        <ItemRef ItemOID=\"IT.VS.VSORRESU.3\" OrderNumber=\"3\" Mandatory=\"No\">\r\n          <def:WhereClauseRef WhereClauseOID=\"WC.PULSEU\"/>\r\n        </ItemRef>\r\n        <ItemRef ItemOID=\"IT.VS.VSORRESU.5\" OrderNumber=\"4\" Mandatory=\"No\">\r\n          <def:WhereClauseRef WhereClauseOID=\"WC.TEMPU\"/>\r\n        </ItemRef>\r\n        <ItemRef ItemOID=\"IT.VS.VSORRESU.6\" OrderNumber=\"5\" Mandatory=\"No\">\r\n          <def:WhereClauseRef WhereClauseOID=\"WC.WEIGHTU\"/>\r\n        </ItemRef>\r\n      </def:ValueListDef>\r\n      <def:ValueListDef OID=\"VL.VSSTRESU\">\r\n        <ItemRef ItemOID=\"IT.VS.VSSTRESU.1\" OrderNumber=\"1\" Mandatory=\"No\">\r\n          <def:WhereClauseRef WhereClauseOID=\"WC.BP\"/>\r\n        </ItemRef>\r\n        <ItemRef ItemOID=\"IT.VS.VSSTRESU.2\" OrderNumber=\"2\" Mandatory=\"No\">\r\n          <def:WhereClauseRef WhereClauseOID=\"WC.HEIGHTU\"/>\r\n        </ItemRef>\r\n        <ItemRef ItemOID=\"IT.VS.VSSTRESU.3\" OrderNumber=\"3\" Mandatory=\"No\">\r\n          <def:WhereClauseRef WhereClauseOID=\"WC.PULSEU\"/>\r\n        </ItemRef>\r\n        <ItemRef ItemOID=\"IT.VS.VSSTRESU.5\" OrderNumber=\"4\" Mandatory=\"No\">\r\n          <def:WhereClauseRef WhereClauseOID=\"WC.TEMPU\"/>\r\n        </ItemRef>\r\n        <ItemRef ItemOID=\"IT.VS.VSSTRESU.6\" OrderNumber=\"5\" Mandatory=\"No\">\r\n          <def:WhereClauseRef WhereClauseOID=\"WC.WEIGHTU\"/>\r\n        </ItemRef>\r\n      </def:ValueListDef>\r\n\r\n\r\n      <!-- ************************************************************************** -->\r\n      <!-- WhereClause Definitions Section (Used/Referenced in Value List Definitions) -->\r\n      <!-- ************************************************************************** -->\r\n\r\n      <def:WhereClauseDef OID=\"WC.AETERM1\">\r\n        <RangeCheck Comparator=\"EQ\" SoftHard=\"Soft\" def:ItemOID=\"IT.AE.AETERM\">\r\n          <CheckValue>INJECTION SITE REACTION</CheckValue>\r\n        </RangeCheck>\r\n      </def:WhereClauseDef>\r\n      <def:WhereClauseDef OID=\"WC.AETERM2\">\r\n        <RangeCheck Comparator=\"NE\" SoftHard=\"Soft\" def:ItemOID=\"IT.AE.AETERM\">\r\n          <CheckValue>INJECTION SITE REACTION</CheckValue>\r\n        </RangeCheck>\r\n      </def:WhereClauseDef>\r\n      <def:WhereClauseDef OID=\"WC.AVL0201-15\">\r\n        <RangeCheck Comparator=\"IN\" SoftHard=\"Soft\" def:ItemOID=\"IT.FT.FTTESTCD\">\r\n          <CheckValue>AVL0201</CheckValue>\r\n          <CheckValue>AVL0202</CheckValue>\r\n          <CheckValue>AVL0203</CheckValue>\r\n          <CheckValue>AVL0204</CheckValue>\r\n          <CheckValue>AVL0205</CheckValue>\r\n          <CheckValue>AVL0206</CheckValue>\r\n          <CheckValue>AVL0207</CheckValue>\r\n          <CheckValue>AVL0208</CheckValue>\r\n          <CheckValue>AVL0209</CheckValue>\r\n          <CheckValue>AVL0210</CheckValue>\r\n          <CheckValue>AVL0211</CheckValue>\r\n          <CheckValue>AVL0212</CheckValue>\r\n          <CheckValue>AVL0213</CheckValue>\r\n          <CheckValue>AVL0214</CheckValue>\r\n          <CheckValue>AVL0215</CheckValue>\r\n        </RangeCheck>\r\n      </def:WhereClauseDef>\r\n      <def:WhereClauseDef OID=\"WC.AVL0216-17\">\r\n        <RangeCheck Comparator=\"IN\" SoftHard=\"Soft\" def:ItemOID=\"IT.FT.FTTESTCD\">\r\n          <CheckValue>AVL0216</CheckValue>\r\n          <CheckValue>AVL0217</CheckValue>\r\n        </RangeCheck>\r\n      </def:WhereClauseDef>\r\n      <def:WhereClauseDef OID=\"WC.AVL0218-32\">\r\n        <RangeCheck Comparator=\"IN\" SoftHard=\"Soft\" def:ItemOID=\"IT.FT.FTTESTCD\">\r\n          <CheckValue>AVL0218</CheckValue>\r\n          <CheckValue>AVL0219</CheckValue>\r\n          <CheckValue>AVL0220</CheckValue>\r\n          <CheckValue>AVL0221</CheckValue>\r\n          <CheckValue>AVL0222</CheckValue>\r\n          <CheckValue>AVL0223</CheckValue>\r\n          <CheckValue>AVL0224</CheckValue>\r\n          <CheckValue>AVL0225</CheckValue>\r\n          <CheckValue>AVL0226</CheckValue>\r\n          <CheckValue>AVL0227</CheckValue>\r\n          <CheckValue>AVL0228</CheckValue>\r\n          <CheckValue>AVL0229</CheckValue>\r\n          <CheckValue>AVL0230</CheckValue>\r\n          <CheckValue>AVL0231</CheckValue>\r\n          <CheckValue>AVL0232</CheckValue>\r\n        </RangeCheck>\r\n      </def:WhereClauseDef>\r\n      <def:WhereClauseDef OID=\"WC.AVL0233-34\">\r\n        <RangeCheck Comparator=\"IN\" SoftHard=\"Soft\" def:ItemOID=\"IT.FT.FTTESTCD\">\r\n          <CheckValue>AVL0233</CheckValue>\r\n          <CheckValue>AVL0234</CheckValue>\r\n        </RangeCheck>\r\n      </def:WhereClauseDef>\r\n      <def:WhereClauseDef OID=\"WC.BP\">\r\n        <RangeCheck Comparator=\"IN\" SoftHard=\"Soft\" def:ItemOID=\"IT.VS.VSTESTCD\">\r\n          <CheckValue>DIABP</CheckValue>\r\n          <CheckValue>SYSBP</CheckValue>\r\n        </RangeCheck>\r\n      </def:WhereClauseDef>\r\n      <def:WhereClauseDef OID=\"WC.DSDECOD1\">\r\n        <RangeCheck Comparator=\"NE\" SoftHard=\"Soft\" def:ItemOID=\"IT.DS.DSSCAT\">\r\n          <CheckValue></CheckValue>\r\n        </RangeCheck>\r\n      </def:WhereClauseDef>\r\n      <def:WhereClauseDef OID=\"WC.DSDECOD2\">\r\n        <RangeCheck Comparator=\"EQ\" SoftHard=\"Soft\" def:ItemOID=\"IT.DS.DSSCAT\">\r\n          <CheckValue></CheckValue>\r\n        </RangeCheck>\r\n      </def:WhereClauseDef>\r\n      <def:WhereClauseDef OID=\"WC.DSTERM1\">\r\n        <RangeCheck Comparator=\"NE\" SoftHard=\"Soft\" def:ItemOID=\"IT.DS.DSSCAT\">\r\n          <CheckValue></CheckValue>\r\n        </RangeCheck>\r\n      </def:WhereClauseDef>\r\n      <def:WhereClauseDef OID=\"WC.DSTERM2\">\r\n        <RangeCheck Comparator=\"EQ\" SoftHard=\"Soft\" def:ItemOID=\"IT.DS.DSSCAT\">\r\n          <CheckValue></CheckValue>\r\n        </RangeCheck>\r\n      </def:WhereClauseDef>\r\n      <def:WhereClauseDef OID=\"WC.ECREASOC\">\r\n        <RangeCheck Comparator=\"EQ\" SoftHard=\"Soft\" def:ItemOID=\"IT.SUPPEC.QNAM\">\r\n          <CheckValue>ECREASOC</CheckValue>\r\n        </RangeCheck>\r\n      </def:WhereClauseDef>\r\n      <def:WhereClauseDef OID=\"WC.FAOCCUR\">\r\n        <RangeCheck Comparator=\"EQ\" SoftHard=\"Soft\" def:ItemOID=\"IT.FA.FATESTCD\">\r\n          <CheckValue>OCCUR</CheckValue>\r\n        </RangeCheck>\r\n      </def:WhereClauseDef>\r\n      <def:WhereClauseDef OID=\"WC.FASEV\">\r\n        <RangeCheck Comparator=\"EQ\" SoftHard=\"Soft\" def:ItemOID=\"IT.FA.FATESTCD\">\r\n          <CheckValue>SEV</CheckValue>\r\n        </RangeCheck>\r\n      </def:WhereClauseDef>\r\n      <def:WhereClauseDef OID=\"WC.HAMD101\">\r\n        <RangeCheck Comparator=\"EQ\" SoftHard=\"Soft\" def:ItemOID=\"IT.RS.RSTESTCD\">\r\n          <CheckValue>HAMD101</CheckValue>\r\n        </RangeCheck>\r\n      </def:WhereClauseDef>\r\n      <def:WhereClauseDef OID=\"WC.HAMD101S\">\r\n        <RangeCheck Comparator=\"EQ\" SoftHard=\"Soft\" def:ItemOID=\"IT.RS.RSTESTCD\">\r\n          <CheckValue>HAMD101</CheckValue>\r\n        </RangeCheck>\r\n      </def:WhereClauseDef>\r\n      <def:WhereClauseDef OID=\"WC.HAMD102\">\r\n        <RangeCheck Comparator=\"EQ\" SoftHard=\"Soft\" def:ItemOID=\"IT.RS.RSTESTCD\">\r\n          <CheckValue>HAMD102</CheckValue>\r\n        </RangeCheck>\r\n      </def:WhereClauseDef>\r\n      <def:WhereClauseDef OID=\"WC.HAMD102S\">\r\n        <RangeCheck Comparator=\"EQ\" SoftHard=\"Soft\" def:ItemOID=\"IT.RS.RSTESTCD\">\r\n          <CheckValue>HAMD102</CheckValue>\r\n        </RangeCheck>\r\n      </def:WhereClauseDef>\r\n      <def:WhereClauseDef OID=\"WC.HAMD103\">\r\n        <RangeCheck Comparator=\"EQ\" SoftHard=\"Soft\" def:ItemOID=\"IT.RS.RSTESTCD\">\r\n          <CheckValue>HAMD103</CheckValue>\r\n        </RangeCheck>\r\n      </def:WhereClauseDef>\r\n      <def:WhereClauseDef OID=\"WC.HAMD103S\">\r\n        <RangeCheck Comparator=\"EQ\" SoftHard=\"Soft\" def:ItemOID=\"IT.RS.RSTESTCD\">\r\n          <CheckValue>HAMD103</CheckValue>\r\n        </RangeCheck>\r\n      </def:WhereClauseDef>\r\n      <def:WhereClauseDef OID=\"WC.HAMD104\">\r\n        <RangeCheck Comparator=\"EQ\" SoftHard=\"Soft\" def:ItemOID=\"IT.RS.RSTESTCD\">\r\n          <CheckValue>HAMD104</CheckValue>\r\n        </RangeCheck>\r\n      </def:WhereClauseDef>\r\n      <def:WhereClauseDef OID=\"WC.HAMD104S\">\r\n        <RangeCheck Comparator=\"EQ\" SoftHard=\"Soft\" def:ItemOID=\"IT.RS.RSTESTCD\">\r\n          <CheckValue>HAMD104</CheckValue>\r\n        </RangeCheck>\r\n      </def:WhereClauseDef>\r\n      <def:WhereClauseDef OID=\"WC.HAMD105\">\r\n        <RangeCheck Comparator=\"EQ\" SoftHard=\"Soft\" def:ItemOID=\"IT.RS.RSTESTCD\">\r\n          <CheckValue>HAMD105</CheckValue>\r\n        </RangeCheck>\r\n      </def:WhereClauseDef>\r\n      <def:WhereClauseDef OID=\"WC.HAMD105S\">\r\n        <RangeCheck Comparator=\"EQ\" SoftHard=\"Soft\" def:ItemOID=\"IT.RS.RSTESTCD\">\r\n          <CheckValue>HAMD105</CheckValue>\r\n        </RangeCheck>\r\n      </def:WhereClauseDef>\r\n      <def:WhereClauseDef OID=\"WC.HAMD106\">\r\n        <RangeCheck Comparator=\"EQ\" SoftHard=\"Soft\" def:ItemOID=\"IT.RS.RSTESTCD\">\r\n          <CheckValue>HAMD106</CheckValue>\r\n        </RangeCheck>\r\n      </def:WhereClauseDef>\r\n      <def:WhereClauseDef OID=\"WC.HAMD106S\">\r\n        <RangeCheck Comparator=\"EQ\" SoftHard=\"Soft\" def:ItemOID=\"IT.RS.RSTESTCD\">\r\n          <CheckValue>HAMD106</CheckValue>\r\n        </RangeCheck>\r\n      </def:WhereClauseDef>\r\n      <def:WhereClauseDef OID=\"WC.HAMD107\">\r\n        <RangeCheck Comparator=\"EQ\" SoftHard=\"Soft\" def:ItemOID=\"IT.RS.RSTESTCD\">\r\n          <CheckValue>HAMD107</CheckValue>\r\n        </RangeCheck>\r\n      </def:WhereClauseDef>\r\n      <def:WhereClauseDef OID=\"WC.HAMD107S\">\r\n        <RangeCheck Comparator=\"EQ\" SoftHard=\"Soft\" def:ItemOID=\"IT.RS.RSTESTCD\">\r\n          <CheckValue>HAMD107</CheckValue>\r\n        </RangeCheck>\r\n      </def:WhereClauseDef>\r\n      <def:WhereClauseDef OID=\"WC.HAMD108\">\r\n        <RangeCheck Comparator=\"EQ\" SoftHard=\"Soft\" def:ItemOID=\"IT.RS.RSTESTCD\">\r\n          <CheckValue>HAMD108</CheckValue>\r\n        </RangeCheck>\r\n      </def:WhereClauseDef>\r\n      <def:WhereClauseDef OID=\"WC.HAMD108S\">\r\n        <RangeCheck Comparator=\"EQ\" SoftHard=\"Soft\" def:ItemOID=\"IT.RS.RSTESTCD\">\r\n          <CheckValue>HAMD108</CheckValue>\r\n        </RangeCheck>\r\n      </def:WhereClauseDef>\r\n      <def:WhereClauseDef OID=\"WC.HAMD109\">\r\n        <RangeCheck Comparator=\"EQ\" SoftHard=\"Soft\" def:ItemOID=\"IT.RS.RSTESTCD\">\r\n          <CheckValue>HAMD109</CheckValue>\r\n        </RangeCheck>\r\n      </def:WhereClauseDef>\r\n      <def:WhereClauseDef OID=\"WC.HAMD109S\">\r\n        <RangeCheck Comparator=\"EQ\" SoftHard=\"Soft\" def:ItemOID=\"IT.RS.RSTESTCD\">\r\n          <CheckValue>HAMD109</CheckValue>\r\n        </RangeCheck>\r\n      </def:WhereClauseDef>\r\n      <def:WhereClauseDef OID=\"WC.HAMD110\">\r\n        <RangeCheck Comparator=\"EQ\" SoftHard=\"Soft\" def:ItemOID=\"IT.RS.RSTESTCD\">\r\n          <CheckValue>HAMD110</CheckValue>\r\n        </RangeCheck>\r\n      </def:WhereClauseDef>\r\n      <def:WhereClauseDef OID=\"WC.HAMD110S\">\r\n        <RangeCheck Comparator=\"EQ\" SoftHard=\"Soft\" def:ItemOID=\"IT.RS.RSTESTCD\">\r\n          <CheckValue>HAMD110</CheckValue>\r\n        </RangeCheck>\r\n      </def:WhereClauseDef>\r\n      <def:WhereClauseDef OID=\"WC.HAMD111\">\r\n        <RangeCheck Comparator=\"EQ\" SoftHard=\"Soft\" def:ItemOID=\"IT.RS.RSTESTCD\">\r\n          <CheckValue>HAMD111</CheckValue>\r\n        </RangeCheck>\r\n      </def:WhereClauseDef>\r\n      <def:WhereClauseDef OID=\"WC.HAMD111S\">\r\n        <RangeCheck Comparator=\"EQ\" SoftHard=\"Soft\" def:ItemOID=\"IT.RS.RSTESTCD\">\r\n          <CheckValue>HAMD111</CheckValue>\r\n        </RangeCheck>\r\n      </def:WhereClauseDef>\r\n      <def:WhereClauseDef OID=\"WC.HAMD112\">\r\n        <RangeCheck Comparator=\"EQ\" SoftHard=\"Soft\" def:ItemOID=\"IT.RS.RSTESTCD\">\r\n          <CheckValue>HAMD112</CheckValue>\r\n        </RangeCheck>\r\n      </def:WhereClauseDef>\r\n      <def:WhereClauseDef OID=\"WC.HAMD112S\">\r\n        <RangeCheck Comparator=\"EQ\" SoftHard=\"Soft\" def:ItemOID=\"IT.RS.RSTESTCD\">\r\n          <CheckValue>HAMD112</CheckValue>\r\n        </RangeCheck>\r\n      </def:WhereClauseDef>\r\n      <def:WhereClauseDef OID=\"WC.HAMD113\">\r\n        <RangeCheck Comparator=\"EQ\" SoftHard=\"Soft\" def:ItemOID=\"IT.RS.RSTESTCD\">\r\n          <CheckValue>HAMD113</CheckValue>\r\n        </RangeCheck>\r\n      </def:WhereClauseDef>\r\n      <def:WhereClauseDef OID=\"WC.HAMD113S\">\r\n        <RangeCheck Comparator=\"EQ\" SoftHard=\"Soft\" def:ItemOID=\"IT.RS.RSTESTCD\">\r\n          <CheckValue>HAMD113</CheckValue>\r\n        </RangeCheck>\r\n      </def:WhereClauseDef>\r\n      <def:WhereClauseDef OID=\"WC.HAMD114\">\r\n        <RangeCheck Comparator=\"EQ\" SoftHard=\"Soft\" def:ItemOID=\"IT.RS.RSTESTCD\">\r\n          <CheckValue>HAMD114</CheckValue>\r\n        </RangeCheck>\r\n      </def:WhereClauseDef>\r\n      <def:WhereClauseDef OID=\"WC.HAMD114S\">\r\n        <RangeCheck Comparator=\"EQ\" SoftHard=\"Soft\" def:ItemOID=\"IT.RS.RSTESTCD\">\r\n          <CheckValue>HAMD114</CheckValue>\r\n        </RangeCheck>\r\n      </def:WhereClauseDef>\r\n      <def:WhereClauseDef OID=\"WC.HAMD115\">\r\n        <RangeCheck Comparator=\"EQ\" SoftHard=\"Soft\" def:ItemOID=\"IT.RS.RSTESTCD\">\r\n          <CheckValue>HAMD115</CheckValue>\r\n        </RangeCheck>\r\n      </def:WhereClauseDef>\r\n      <def:WhereClauseDef OID=\"WC.HAMD115S\">\r\n        <RangeCheck Comparator=\"EQ\" SoftHard=\"Soft\" def:ItemOID=\"IT.RS.RSTESTCD\">\r\n          <CheckValue>HAMD115</CheckValue>\r\n        </RangeCheck>\r\n      </def:WhereClauseDef>\r\n      <def:WhereClauseDef OID=\"WC.HAMD116A\">\r\n        <RangeCheck Comparator=\"EQ\" SoftHard=\"Soft\" def:ItemOID=\"IT.RS.RSTESTCD\">\r\n          <CheckValue>HAMD116A</CheckValue>\r\n        </RangeCheck>\r\n      </def:WhereClauseDef>\r\n      <def:WhereClauseDef OID=\"WC.HAMD116AS\">\r\n        <RangeCheck Comparator=\"EQ\" SoftHard=\"Soft\" def:ItemOID=\"IT.RS.RSTESTCD\">\r\n          <CheckValue>HAMD116A</CheckValue>\r\n        </RangeCheck>\r\n      </def:WhereClauseDef>\r\n      <def:WhereClauseDef OID=\"WC.HAMD116B\">\r\n        <RangeCheck Comparator=\"EQ\" SoftHard=\"Soft\" def:ItemOID=\"IT.RS.RSTESTCD\">\r\n          <CheckValue>HAMD116B</CheckValue>\r\n        </RangeCheck>\r\n      </def:WhereClauseDef>\r\n      <def:WhereClauseDef OID=\"WC.HAMD116BS\">\r\n        <RangeCheck Comparator=\"EQ\" SoftHard=\"Soft\" def:ItemOID=\"IT.RS.RSTESTCD\">\r\n          <CheckValue>HAMD116B</CheckValue>\r\n        </RangeCheck>\r\n      </def:WhereClauseDef>\r\n      <def:WhereClauseDef OID=\"WC.HAMD117\">\r\n        <RangeCheck Comparator=\"EQ\" SoftHard=\"Soft\" def:ItemOID=\"IT.RS.RSTESTCD\">\r\n          <CheckValue>HAMD117</CheckValue>\r\n        </RangeCheck>\r\n      </def:WhereClauseDef>\r\n      <def:WhereClauseDef OID=\"WC.HAMD117S\">\r\n        <RangeCheck Comparator=\"EQ\" SoftHard=\"Soft\" def:ItemOID=\"IT.RS.RSTESTCD\">\r\n          <CheckValue>HAMD117</CheckValue>\r\n        </RangeCheck>\r\n      </def:WhereClauseDef>\r\n      <def:WhereClauseDef OID=\"WC.HAMD118\">\r\n        <RangeCheck Comparator=\"EQ\" SoftHard=\"Soft\" def:ItemOID=\"IT.RS.RSTESTCD\">\r\n          <CheckValue>HAMD118</CheckValue>\r\n        </RangeCheck>\r\n      </def:WhereClauseDef>\r\n      <def:WhereClauseDef OID=\"WC.HAMD118S\">\r\n        <RangeCheck Comparator=\"EQ\" SoftHard=\"Soft\" def:ItemOID=\"IT.RS.RSTESTCD\">\r\n          <CheckValue>HAMD118</CheckValue>\r\n        </RangeCheck>\r\n      </def:WhereClauseDef>\r\n      <def:WhereClauseDef OID=\"WC.HEIGHT\">\r\n        <RangeCheck Comparator=\"EQ\" SoftHard=\"Soft\" def:ItemOID=\"IT.VS.VSTESTCD\">\r\n          <CheckValue>HEIGHT</CheckValue>\r\n        </RangeCheck>\r\n      </def:WhereClauseDef>\r\n      <def:WhereClauseDef OID=\"WC.HEIGHTU\">\r\n        <RangeCheck Comparator=\"EQ\" SoftHard=\"Soft\" def:ItemOID=\"IT.VS.VSTESTCD\">\r\n          <CheckValue>HEIGHT</CheckValue>\r\n        </RangeCheck>\r\n      </def:WhereClauseDef>\r\n      <def:WhereClauseDef OID=\"WC.LB_ORRESU_UNITS_ALB\">\r\n        <RangeCheck Comparator=\"EQ\" SoftHard=\"Soft\" def:ItemOID=\"IT.LB.LBTESTCD\">\r\n          <CheckValue>ALB</CheckValue>\r\n        </RangeCheck>\r\n      </def:WhereClauseDef>\r\n      <def:WhereClauseDef OID=\"WC.LB_ORRESU_UNITS_ALP\">\r\n        <RangeCheck Comparator=\"EQ\" SoftHard=\"Soft\" def:ItemOID=\"IT.LB.LBTESTCD\">\r\n          <CheckValue>ALP</CheckValue>\r\n        </RangeCheck>\r\n      </def:WhereClauseDef>\r\n      <def:WhereClauseDef OID=\"WC.LB_ORRESU_UNITS_ALT\">\r\n        <RangeCheck Comparator=\"EQ\" SoftHard=\"Soft\" def:ItemOID=\"IT.LB.LBTESTCD\">\r\n          <CheckValue>ALT</CheckValue>\r\n        </RangeCheck>\r\n      </def:WhereClauseDef>\r\n      <def:WhereClauseDef OID=\"WC.LB_ORRESU_UNITS_AST\">\r\n        <RangeCheck Comparator=\"EQ\" SoftHard=\"Soft\" def:ItemOID=\"IT.LB.LBTESTCD\">\r\n          <CheckValue>AST</CheckValue>\r\n        </RangeCheck>\r\n      </def:WhereClauseDef>\r\n      <def:WhereClauseDef OID=\"WC.LB_ORRESU_UNITS_BASO\">\r\n        <RangeCheck Comparator=\"EQ\" SoftHard=\"Soft\" def:ItemOID=\"IT.LB.LBTESTCD\">\r\n          <CheckValue>BASO</CheckValue>\r\n        </RangeCheck>\r\n      </def:WhereClauseDef>\r\n      <def:WhereClauseDef OID=\"WC.LB_ORRESU_UNITS_BILI\">\r\n        <RangeCheck Comparator=\"EQ\" SoftHard=\"Soft\" def:ItemOID=\"IT.LB.LBTESTCD\">\r\n          <CheckValue>BILI</CheckValue>\r\n        </RangeCheck>\r\n      </def:WhereClauseDef>\r\n      <def:WhereClauseDef OID=\"WC.LB_ORRESU_UNITS_CA\">\r\n        <RangeCheck Comparator=\"EQ\" SoftHard=\"Soft\" def:ItemOID=\"IT.LB.LBTESTCD\">\r\n          <CheckValue>CA</CheckValue>\r\n        </RangeCheck>\r\n      </def:WhereClauseDef>\r\n      <def:WhereClauseDef OID=\"WC.LB_ORRESU_UNITS_CHOL\">\r\n        <RangeCheck Comparator=\"EQ\" SoftHard=\"Soft\" def:ItemOID=\"IT.LB.LBTESTCD\">\r\n          <CheckValue>CHOL</CheckValue>\r\n        </RangeCheck>\r\n      </def:WhereClauseDef>\r\n      <def:WhereClauseDef OID=\"WC.LB_ORRESU_UNITS_CK\">\r\n        <RangeCheck Comparator=\"EQ\" SoftHard=\"Soft\" def:ItemOID=\"IT.LB.LBTESTCD\">\r\n          <CheckValue>CK</CheckValue>\r\n        </RangeCheck>\r\n      </def:WhereClauseDef>\r\n      <def:WhereClauseDef OID=\"WC.LB_ORRESU_UNITS_CL\">\r\n        <RangeCheck Comparator=\"EQ\" SoftHard=\"Soft\" def:ItemOID=\"IT.LB.LBTESTCD\">\r\n          <CheckValue>CL</CheckValue>\r\n        </RangeCheck>\r\n      </def:WhereClauseDef>\r\n      <def:WhereClauseDef OID=\"WC.LB_ORRESU_UNITS_CREAT\">\r\n        <RangeCheck Comparator=\"EQ\" SoftHard=\"Soft\" def:ItemOID=\"IT.LB.LBTESTCD\">\r\n          <CheckValue>CREAT</CheckValue>\r\n        </RangeCheck>\r\n      </def:WhereClauseDef>\r\n      <def:WhereClauseDef OID=\"WC.LB_ORRESU_UNITS_EOS\">\r\n        <RangeCheck Comparator=\"EQ\" SoftHard=\"Soft\" def:ItemOID=\"IT.LB.LBTESTCD\">\r\n          <CheckValue>EOS</CheckValue>\r\n        </RangeCheck>\r\n      </def:WhereClauseDef>\r\n      <def:WhereClauseDef OID=\"WC.LB_ORRESU_UNITS_GGT\">\r\n        <RangeCheck Comparator=\"EQ\" SoftHard=\"Soft\" def:ItemOID=\"IT.LB.LBTESTCD\">\r\n          <CheckValue>GGT</CheckValue>\r\n        </RangeCheck>\r\n      </def:WhereClauseDef>\r\n      <def:WhereClauseDef OID=\"WC.LB_ORRESU_UNITS_GLUC\">\r\n        <RangeCheck Comparator=\"EQ\" SoftHard=\"Soft\" def:ItemOID=\"IT.LB.LBTESTCD\">\r\n          <CheckValue>GLUC</CheckValue>\r\n        </RangeCheck>\r\n      </def:WhereClauseDef>\r\n      <def:WhereClauseDef OID=\"WC.LB_ORRESU_UNITS_HCT\">\r\n        <RangeCheck Comparator=\"EQ\" SoftHard=\"Soft\" def:ItemOID=\"IT.LB.LBTESTCD\">\r\n          <CheckValue>HCT</CheckValue>\r\n        </RangeCheck>\r\n      </def:WhereClauseDef>\r\n      <def:WhereClauseDef OID=\"WC.LB_ORRESU_UNITS_HGB\">\r\n        <RangeCheck Comparator=\"EQ\" SoftHard=\"Soft\" def:ItemOID=\"IT.LB.LBTESTCD\">\r\n          <CheckValue>HGB</CheckValue>\r\n        </RangeCheck>\r\n      </def:WhereClauseDef>\r\n      <def:WhereClauseDef OID=\"WC.LB_ORRESU_UNITS_K\">\r\n        <RangeCheck Comparator=\"EQ\" SoftHard=\"Soft\" def:ItemOID=\"IT.LB.LBTESTCD\">\r\n          <CheckValue>K</CheckValue>\r\n        </RangeCheck>\r\n      </def:WhereClauseDef>\r\n      <def:WhereClauseDef OID=\"WC.LB_ORRESU_UNITS_LYM\">\r\n        <RangeCheck Comparator=\"EQ\" SoftHard=\"Soft\" def:ItemOID=\"IT.LB.LBTESTCD\">\r\n          <CheckValue>LYM</CheckValue>\r\n        </RangeCheck>\r\n      </def:WhereClauseDef>\r\n      <def:WhereClauseDef OID=\"WC.LB_ORRESU_UNITS_MCH\">\r\n        <RangeCheck Comparator=\"EQ\" SoftHard=\"Soft\" def:ItemOID=\"IT.LB.LBTESTCD\">\r\n          <CheckValue>MCH</CheckValue>\r\n        </RangeCheck>\r\n      </def:WhereClauseDef>\r\n      <def:WhereClauseDef OID=\"WC.LB_ORRESU_UNITS_MCHC\">\r\n        <RangeCheck Comparator=\"EQ\" SoftHard=\"Soft\" def:ItemOID=\"IT.LB.LBTESTCD\">\r\n          <CheckValue>MCHC</CheckValue>\r\n        </RangeCheck>\r\n      </def:WhereClauseDef>\r\n      <def:WhereClauseDef OID=\"WC.LB_ORRESU_UNITS_MCV\">\r\n        <RangeCheck Comparator=\"EQ\" SoftHard=\"Soft\" def:ItemOID=\"IT.LB.LBTESTCD\">\r\n          <CheckValue>MCV</CheckValue>\r\n        </RangeCheck>\r\n      </def:WhereClauseDef>\r\n      <def:WhereClauseDef OID=\"WC.LB_ORRESU_UNITS_MONO\">\r\n        <RangeCheck Comparator=\"EQ\" SoftHard=\"Soft\" def:ItemOID=\"IT.LB.LBTESTCD\">\r\n          <CheckValue>MONO</CheckValue>\r\n        </RangeCheck>\r\n      </def:WhereClauseDef>\r\n      <def:WhereClauseDef OID=\"WC.LB_ORRESU_UNITS_PHOS\">\r\n        <RangeCheck Comparator=\"EQ\" SoftHard=\"Soft\" def:ItemOID=\"IT.LB.LBTESTCD\">\r\n          <CheckValue>PHOS</CheckValue>\r\n        </RangeCheck>\r\n      </def:WhereClauseDef>\r\n      <def:WhereClauseDef OID=\"WC.LB_ORRESU_UNITS_PLAT\">\r\n        <RangeCheck Comparator=\"EQ\" SoftHard=\"Soft\" def:ItemOID=\"IT.LB.LBTESTCD\">\r\n          <CheckValue>PLAT</CheckValue>\r\n        </RangeCheck>\r\n      </def:WhereClauseDef>\r\n      <def:WhereClauseDef OID=\"WC.LB_ORRESU_UNITS_PROT\">\r\n        <RangeCheck Comparator=\"EQ\" SoftHard=\"Soft\" def:ItemOID=\"IT.LB.LBTESTCD\">\r\n          <CheckValue>PROT</CheckValue>\r\n        </RangeCheck>\r\n      </def:WhereClauseDef>\r\n      <def:WhereClauseDef OID=\"WC.LB_ORRESU_UNITS_RBC\">\r\n        <RangeCheck Comparator=\"EQ\" SoftHard=\"Soft\" def:ItemOID=\"IT.LB.LBTESTCD\">\r\n          <CheckValue>RBC</CheckValue>\r\n        </RangeCheck>\r\n      </def:WhereClauseDef>\r\n      <def:WhereClauseDef OID=\"WC.LB_ORRESU_UNITS_SODIUM\">\r\n        <RangeCheck Comparator=\"EQ\" SoftHard=\"Soft\" def:ItemOID=\"IT.LB.LBTESTCD\">\r\n          <CheckValue>SODIUM</CheckValue>\r\n        </RangeCheck>\r\n      </def:WhereClauseDef>\r\n      <def:WhereClauseDef OID=\"WC.LB_ORRESU_UNITS_TSH\">\r\n        <RangeCheck Comparator=\"EQ\" SoftHard=\"Soft\" def:ItemOID=\"IT.LB.LBTESTCD\">\r\n          <CheckValue>TSH</CheckValue>\r\n        </RangeCheck>\r\n      </def:WhereClauseDef>\r\n      <def:WhereClauseDef OID=\"WC.LB_ORRESU_UNITS_URATE\">\r\n        <RangeCheck Comparator=\"EQ\" SoftHard=\"Soft\" def:ItemOID=\"IT.LB.LBTESTCD\">\r\n          <CheckValue>URATE</CheckValue>\r\n        </RangeCheck>\r\n      </def:WhereClauseDef>\r\n      <def:WhereClauseDef OID=\"WC.LB_ORRESU_UNITS_UREAN\">\r\n        <RangeCheck Comparator=\"EQ\" SoftHard=\"Soft\" def:ItemOID=\"IT.LB.LBTESTCD\">\r\n          <CheckValue>UREAN</CheckValue>\r\n        </RangeCheck>\r\n      </def:WhereClauseDef>\r\n      <def:WhereClauseDef OID=\"WC.LB_ORRESU_UNITS_VITB12\">\r\n        <RangeCheck Comparator=\"EQ\" SoftHard=\"Soft\" def:ItemOID=\"IT.LB.LBTESTCD\">\r\n          <CheckValue>VITB12</CheckValue>\r\n        </RangeCheck>\r\n      </def:WhereClauseDef>\r\n      <def:WhereClauseDef OID=\"WC.LB_ORRESU_UNITS_WBC\">\r\n        <RangeCheck Comparator=\"EQ\" SoftHard=\"Soft\" def:ItemOID=\"IT.LB.LBTESTCD\">\r\n          <CheckValue>WBC</CheckValue>\r\n        </RangeCheck>\r\n      </def:WhereClauseDef>\r\n      <def:WhereClauseDef OID=\"WC.LB_ORRES_COLOR\">\r\n        <RangeCheck Comparator=\"EQ\" SoftHard=\"Soft\" def:ItemOID=\"IT.LB.LBTESTCD\">\r\n          <CheckValue>COLOR</CheckValue>\r\n        </RangeCheck>\r\n      </def:WhereClauseDef>\r\n      <def:WhereClauseDef OID=\"WC.LB_ORRES_GLUC\">\r\n        <RangeCheck Comparator=\"EQ\" SoftHard=\"Soft\" def:ItemOID=\"IT.LB.LBTESTCD\">\r\n          <CheckValue>GLUC</CheckValue>\r\n        </RangeCheck>\r\n      </def:WhereClauseDef>\r\n      <def:WhereClauseDef OID=\"WC.LB_ORRES_SET1\">\r\n        <RangeCheck Comparator=\"IN\" SoftHard=\"Soft\" def:ItemOID=\"IT.LB.LBTESTCD\">\r\n          <CheckValue>ALB</CheckValue>\r\n          <CheckValue>BILI</CheckValue>\r\n          <CheckValue>CA</CheckValue>\r\n          <CheckValue>CREAT</CheckValue>\r\n          <CheckValue>K</CheckValue>\r\n          <CheckValue>PHOS</CheckValue>\r\n          <CheckValue>PROT</CheckValue>\r\n          <CheckValue>URATE</CheckValue>\r\n        </RangeCheck>\r\n      </def:WhereClauseDef>\r\n      <def:WhereClauseDef OID=\"WC.LB_ORRES_SET2\">\r\n        <RangeCheck Comparator=\"IN\" SoftHard=\"Soft\" def:ItemOID=\"IT.LB.LBTESTCD\">\r\n          <CheckValue>HCT</CheckValue>\r\n          <CheckValue>HGB</CheckValue>\r\n        </RangeCheck>\r\n      </def:WhereClauseDef>\r\n      <def:WhereClauseDef OID=\"WC.LB_ORRES_SET3\">\r\n        <RangeCheck Comparator=\"IN\" SoftHard=\"Soft\" def:ItemOID=\"IT.LB.LBTESTCD\">\r\n          <CheckValue>BASO</CheckValue>\r\n          <CheckValue>EOS</CheckValue>\r\n          <CheckValue>LYM</CheckValue>\r\n          <CheckValue>MONO</CheckValue>\r\n          <CheckValue>RBC</CheckValue>\r\n          <CheckValue>TSH</CheckValue>\r\n          <CheckValue>WBC</CheckValue>\r\n        </RangeCheck>\r\n      </def:WhereClauseDef>\r\n      <def:WhereClauseDef OID=\"WC.LB_ORRES_SET4\">\r\n        <RangeCheck Comparator=\"IN\" SoftHard=\"Soft\" def:ItemOID=\"IT.LB.LBTESTCD\">\r\n          <CheckValue>ANISO</CheckValue>\r\n          <CheckValue>KETONES</CheckValue>\r\n          <CheckValue>MACROCY</CheckValue>\r\n          <CheckValue>PH</CheckValue>\r\n          <CheckValue>POIKILO</CheckValue>\r\n          <CheckValue>UROBIL</CheckValue>\r\n        </RangeCheck>\r\n      </def:WhereClauseDef>\r\n      <def:WhereClauseDef OID=\"WC.LB_ORRES_SET5\">\r\n        <RangeCheck Comparator=\"IN\" SoftHard=\"Soft\" def:ItemOID=\"IT.LB.LBTESTCD\">\r\n          <CheckValue>ALT</CheckValue>\r\n          <CheckValue>AST</CheckValue>\r\n          <CheckValue>GGT</CheckValue>\r\n          <CheckValue>MCH</CheckValue>\r\n          <CheckValue>MCHC</CheckValue>\r\n          <CheckValue>MCV</CheckValue>\r\n          <CheckValue>UREAN</CheckValue>\r\n        </RangeCheck>\r\n      </def:WhereClauseDef>\r\n      <def:WhereClauseDef OID=\"WC.LB_ORRES_SET6\">\r\n        <RangeCheck Comparator=\"IN\" SoftHard=\"Soft\" def:ItemOID=\"IT.LB.LBTESTCD\">\r\n          <CheckValue>ALP</CheckValue>\r\n          <CheckValue>CHOL</CheckValue>\r\n          <CheckValue>CK</CheckValue>\r\n          <CheckValue>CL</CheckValue>\r\n          <CheckValue>PLAT</CheckValue>\r\n          <CheckValue>SODIUM</CheckValue>\r\n          <CheckValue>VITB12</CheckValue>\r\n        </RangeCheck>\r\n      </def:WhereClauseDef>\r\n      <def:WhereClauseDef OID=\"WC.LB_ORRES_SPGRAV\">\r\n        <RangeCheck Comparator=\"EQ\" SoftHard=\"Soft\" def:ItemOID=\"IT.LB.LBTESTCD\">\r\n          <CheckValue>SPGRAV</CheckValue>\r\n        </RangeCheck>\r\n      </def:WhereClauseDef>\r\n      <def:WhereClauseDef OID=\"WC.LB_STRESC_BILI\">\r\n        <RangeCheck Comparator=\"EQ\" SoftHard=\"Soft\" def:ItemOID=\"IT.LB.LBTESTCD\">\r\n          <CheckValue>BILI</CheckValue>\r\n        </RangeCheck>\r\n      </def:WhereClauseDef>\r\n      <def:WhereClauseDef OID=\"WC.LB_STRESC_CK\">\r\n        <RangeCheck Comparator=\"EQ\" SoftHard=\"Soft\" def:ItemOID=\"IT.LB.LBTESTCD\">\r\n          <CheckValue>CK</CheckValue>\r\n        </RangeCheck>\r\n      </def:WhereClauseDef>\r\n      <def:WhereClauseDef OID=\"WC.LB_STRESC_COLOR\">\r\n        <RangeCheck Comparator=\"EQ\" SoftHard=\"Soft\" def:ItemOID=\"IT.LB.LBTESTCD\">\r\n          <CheckValue>COLOR</CheckValue>\r\n        </RangeCheck>\r\n      </def:WhereClauseDef>\r\n      <def:WhereClauseDef OID=\"WC.LB_STRESC_CREAT\">\r\n        <RangeCheck Comparator=\"EQ\" SoftHard=\"Soft\" def:ItemOID=\"IT.LB.LBTESTCD\">\r\n          <CheckValue>CREAT</CheckValue>\r\n        </RangeCheck>\r\n      </def:WhereClauseDef>\r\n      <def:WhereClauseDef OID=\"WC.LB_STRESC_GLUC\">\r\n        <RangeCheck Comparator=\"EQ\" SoftHard=\"Soft\" def:ItemOID=\"IT.LB.LBTESTCD\">\r\n          <CheckValue>GLUC</CheckValue>\r\n        </RangeCheck>\r\n      </def:WhereClauseDef>\r\n      <def:WhereClauseDef OID=\"WC.LB_STRESC_HGB\">\r\n        <RangeCheck Comparator=\"EQ\" SoftHard=\"Soft\" def:ItemOID=\"IT.LB.LBTESTCD\">\r\n          <CheckValue>HGB</CheckValue>\r\n        </RangeCheck>\r\n      </def:WhereClauseDef>\r\n      <def:WhereClauseDef OID=\"WC.LB_STRESC_K\">\r\n        <RangeCheck Comparator=\"EQ\" SoftHard=\"Soft\" def:ItemOID=\"IT.LB.LBTESTCD\">\r\n          <CheckValue>K</CheckValue>\r\n        </RangeCheck>\r\n      </def:WhereClauseDef>\r\n      <def:WhereClauseDef OID=\"WC.LB_STRESC_MCHC\">\r\n        <RangeCheck Comparator=\"EQ\" SoftHard=\"Soft\" def:ItemOID=\"IT.LB.LBTESTCD\">\r\n          <CheckValue>MCHC</CheckValue>\r\n        </RangeCheck>\r\n      </def:WhereClauseDef>\r\n      <def:WhereClauseDef OID=\"WC.LB_STRESC_RBC\">\r\n        <RangeCheck Comparator=\"EQ\" SoftHard=\"Soft\" def:ItemOID=\"IT.LB.LBTESTCD\">\r\n          <CheckValue>RBC</CheckValue>\r\n        </RangeCheck>\r\n      </def:WhereClauseDef>\r\n      <def:WhereClauseDef OID=\"WC.LB_STRESC_SET1\">\r\n        <RangeCheck Comparator=\"IN\" SoftHard=\"Soft\" def:ItemOID=\"IT.LB.LBTESTCD\">\r\n          <CheckValue>BASO</CheckValue>\r\n          <CheckValue>EOS</CheckValue>\r\n          <CheckValue>LYM</CheckValue>\r\n          <CheckValue>MONO</CheckValue>\r\n          <CheckValue>RBC</CheckValue>\r\n          <CheckValue>TSH</CheckValue>\r\n          <CheckValue>WBC</CheckValue>\r\n        </RangeCheck>\r\n      </def:WhereClauseDef>\r\n      <def:WhereClauseDef OID=\"WC.LB_STRESC_SET2\">\r\n        <RangeCheck Comparator=\"IN\" SoftHard=\"Soft\" def:ItemOID=\"IT.LB.LBTESTCD\">\r\n          <CheckValue>SPGRAV</CheckValue>\r\n          <CheckValue>UREAN</CheckValue>\r\n        </RangeCheck>\r\n      </def:WhereClauseDef>\r\n      <def:WhereClauseDef OID=\"WC.LB_STRESC_SET3\">\r\n        <RangeCheck Comparator=\"IN\" SoftHard=\"Soft\" def:ItemOID=\"IT.LB.LBTESTCD\">\r\n          <CheckValue>CA</CheckValue>\r\n          <CheckValue>CHOL</CheckValue>\r\n          <CheckValue>MCH</CheckValue>\r\n          <CheckValue>PHOS</CheckValue>\r\n        </RangeCheck>\r\n      </def:WhereClauseDef>\r\n      <def:WhereClauseDef OID=\"WC.LB_STRESC_SET4\">\r\n        <RangeCheck Comparator=\"IN\" SoftHard=\"Soft\" def:ItemOID=\"IT.LB.LBTESTCD\">\r\n          <CheckValue>ANISO</CheckValue>\r\n          <CheckValue>KETONES</CheckValue>\r\n          <CheckValue>MACROCY</CheckValue>\r\n          <CheckValue>PH</CheckValue>\r\n          <CheckValue>POIKILO</CheckValue>\r\n          <CheckValue>UROBIL</CheckValue>\r\n        </RangeCheck>\r\n      </def:WhereClauseDef>\r\n      <def:WhereClauseDef OID=\"WC.LB_STRESC_SET5\">\r\n        <RangeCheck Comparator=\"IN\" SoftHard=\"Soft\" def:ItemOID=\"IT.LB.LBTESTCD\">\r\n          <CheckValue>ALB</CheckValue>\r\n          <CheckValue>ALT</CheckValue>\r\n          <CheckValue>AST</CheckValue>\r\n          <CheckValue>GGT</CheckValue>\r\n          <CheckValue>PROT</CheckValue>\r\n        </RangeCheck>\r\n      </def:WhereClauseDef>\r\n      <def:WhereClauseDef OID=\"WC.LB_STRESC_SET6\">\r\n        <RangeCheck Comparator=\"IN\" SoftHard=\"Soft\" def:ItemOID=\"IT.LB.LBTESTCD\">\r\n          <CheckValue>ALP</CheckValue>\r\n          <CheckValue>CL</CheckValue>\r\n          <CheckValue>MCV</CheckValue>\r\n          <CheckValue>PLAT</CheckValue>\r\n          <CheckValue>SODIUM</CheckValue>\r\n        </RangeCheck>\r\n      </def:WhereClauseDef>\r\n      <def:WhereClauseDef OID=\"WC.LB_STRESC_URATE\">\r\n        <RangeCheck Comparator=\"EQ\" SoftHard=\"Soft\" def:ItemOID=\"IT.LB.LBTESTCD\">\r\n          <CheckValue>URATE</CheckValue>\r\n        </RangeCheck>\r\n      </def:WhereClauseDef>\r\n      <def:WhereClauseDef OID=\"WC.LB_STRESC_VITB12\">\r\n        <RangeCheck Comparator=\"EQ\" SoftHard=\"Soft\" def:ItemOID=\"IT.LB.LBTESTCD\">\r\n          <CheckValue>VITB12</CheckValue>\r\n        </RangeCheck>\r\n      </def:WhereClauseDef>\r\n      <def:WhereClauseDef OID=\"WC.LB_STRESU_UNITS_ALB_STD\">\r\n        <RangeCheck Comparator=\"EQ\" SoftHard=\"Soft\" def:ItemOID=\"IT.LB.LBTESTCD\">\r\n          <CheckValue>ALB</CheckValue>\r\n        </RangeCheck>\r\n      </def:WhereClauseDef>\r\n      <def:WhereClauseDef OID=\"WC.LB_STRESU_UNITS_ALP_STD\">\r\n        <RangeCheck Comparator=\"EQ\" SoftHard=\"Soft\" def:ItemOID=\"IT.LB.LBTESTCD\">\r\n          <CheckValue>ALP</CheckValue>\r\n        </RangeCheck>\r\n      </def:WhereClauseDef>\r\n      <def:WhereClauseDef OID=\"WC.LB_STRESU_UNITS_ALT_STD\">\r\n        <RangeCheck Comparator=\"EQ\" SoftHard=\"Soft\" def:ItemOID=\"IT.LB.LBTESTCD\">\r\n          <CheckValue>ALT</CheckValue>\r\n        </RangeCheck>\r\n      </def:WhereClauseDef>\r\n      <def:WhereClauseDef OID=\"WC.LB_STRESU_UNITS_AST_STD\">\r\n        <RangeCheck Comparator=\"EQ\" SoftHard=\"Soft\" def:ItemOID=\"IT.LB.LBTESTCD\">\r\n          <CheckValue>AST</CheckValue>\r\n        </RangeCheck>\r\n      </def:WhereClauseDef>\r\n      <def:WhereClauseDef OID=\"WC.LB_STRESU_UNITS_BASO_STD\">\r\n        <RangeCheck Comparator=\"EQ\" SoftHard=\"Soft\" def:ItemOID=\"IT.LB.LBTESTCD\">\r\n          <CheckValue>BASO</CheckValue>\r\n        </RangeCheck>\r\n      </def:WhereClauseDef>\r\n      <def:WhereClauseDef OID=\"WC.LB_STRESU_UNITS_BILI_STD\">\r\n        <RangeCheck Comparator=\"EQ\" SoftHard=\"Soft\" def:ItemOID=\"IT.LB.LBTESTCD\">\r\n          <CheckValue>BILI</CheckValue>\r\n        </RangeCheck>\r\n      </def:WhereClauseDef>\r\n      <def:WhereClauseDef OID=\"WC.LB_STRESU_UNITS_CA_STD\">\r\n        <RangeCheck Comparator=\"EQ\" SoftHard=\"Soft\" def:ItemOID=\"IT.LB.LBTESTCD\">\r\n          <CheckValue>CA</CheckValue>\r\n        </RangeCheck>\r\n      </def:WhereClauseDef>\r\n      <def:WhereClauseDef OID=\"WC.LB_STRESU_UNITS_CHOL_STD\">\r\n        <RangeCheck Comparator=\"EQ\" SoftHard=\"Soft\" def:ItemOID=\"IT.LB.LBTESTCD\">\r\n          <CheckValue>CHOL</CheckValue>\r\n        </RangeCheck>\r\n      </def:WhereClauseDef>\r\n      <def:WhereClauseDef OID=\"WC.LB_STRESU_UNITS_CK_STD\">\r\n        <RangeCheck Comparator=\"EQ\" SoftHard=\"Soft\" def:ItemOID=\"IT.LB.LBTESTCD\">\r\n          <CheckValue>CK</CheckValue>\r\n        </RangeCheck>\r\n      </def:WhereClauseDef>\r\n      <def:WhereClauseDef OID=\"WC.LB_STRESU_UNITS_CL_STD\">\r\n        <RangeCheck Comparator=\"EQ\" SoftHard=\"Soft\" def:ItemOID=\"IT.LB.LBTESTCD\">\r\n          <CheckValue>CL</CheckValue>\r\n        </RangeCheck>\r\n      </def:WhereClauseDef>\r\n      <def:WhereClauseDef OID=\"WC.LB_STRESU_UNITS_CREAT_STD\">\r\n        <RangeCheck Comparator=\"EQ\" SoftHard=\"Soft\" def:ItemOID=\"IT.LB.LBTESTCD\">\r\n          <CheckValue>CREAT</CheckValue>\r\n        </RangeCheck>\r\n      </def:WhereClauseDef>\r\n      <def:WhereClauseDef OID=\"WC.LB_STRESU_UNITS_EOS_STD\">\r\n        <RangeCheck Comparator=\"EQ\" SoftHard=\"Soft\" def:ItemOID=\"IT.LB.LBTESTCD\">\r\n          <CheckValue>EOS</CheckValue>\r\n        </RangeCheck>\r\n      </def:WhereClauseDef>\r\n      <def:WhereClauseDef OID=\"WC.LB_STRESU_UNITS_GGT_STD\">\r\n        <RangeCheck Comparator=\"EQ\" SoftHard=\"Soft\" def:ItemOID=\"IT.LB.LBTESTCD\">\r\n          <CheckValue>GGT</CheckValue>\r\n        </RangeCheck>\r\n      </def:WhereClauseDef>\r\n      <def:WhereClauseDef OID=\"WC.LB_STRESU_UNITS_GLUC_STD\">\r\n        <RangeCheck Comparator=\"EQ\" SoftHard=\"Soft\" def:ItemOID=\"IT.LB.LBTESTCD\">\r\n          <CheckValue>GLUC</CheckValue>\r\n        </RangeCheck>\r\n      </def:WhereClauseDef>\r\n      <def:WhereClauseDef OID=\"WC.LB_STRESU_UNITS_HGB_STD\">\r\n        <RangeCheck Comparator=\"EQ\" SoftHard=\"Soft\" def:ItemOID=\"IT.LB.LBTESTCD\">\r\n          <CheckValue>HGB</CheckValue>\r\n        </RangeCheck>\r\n      </def:WhereClauseDef>\r\n      <def:WhereClauseDef OID=\"WC.LB_STRESU_UNITS_K_STD\">\r\n        <RangeCheck Comparator=\"EQ\" SoftHard=\"Soft\" def:ItemOID=\"IT.LB.LBTESTCD\">\r\n          <CheckValue>K</CheckValue>\r\n        </RangeCheck>\r\n      </def:WhereClauseDef>\r\n      <def:WhereClauseDef OID=\"WC.LB_STRESU_UNITS_LYM_STD\">\r\n        <RangeCheck Comparator=\"EQ\" SoftHard=\"Soft\" def:ItemOID=\"IT.LB.LBTESTCD\">\r\n          <CheckValue>LYM</CheckValue>\r\n        </RangeCheck>\r\n      </def:WhereClauseDef>\r\n      <def:WhereClauseDef OID=\"WC.LB_STRESU_UNITS_MCHC_STD\">\r\n        <RangeCheck Comparator=\"EQ\" SoftHard=\"Soft\" def:ItemOID=\"IT.LB.LBTESTCD\">\r\n          <CheckValue>MCHC</CheckValue>\r\n        </RangeCheck>\r\n      </def:WhereClauseDef>\r\n      <def:WhereClauseDef OID=\"WC.LB_STRESU_UNITS_MCH_STD\">\r\n        <RangeCheck Comparator=\"EQ\" SoftHard=\"Soft\" def:ItemOID=\"IT.LB.LBTESTCD\">\r\n          <CheckValue>MCH</CheckValue>\r\n        </RangeCheck>\r\n      </def:WhereClauseDef>\r\n      <def:WhereClauseDef OID=\"WC.LB_STRESU_UNITS_MCV_STD\">\r\n        <RangeCheck Comparator=\"EQ\" SoftHard=\"Soft\" def:ItemOID=\"IT.LB.LBTESTCD\">\r\n          <CheckValue>MCV</CheckValue>\r\n        </RangeCheck>\r\n      </def:WhereClauseDef>\r\n      <def:WhereClauseDef OID=\"WC.LB_STRESU_UNITS_MONO_STD\">\r\n        <RangeCheck Comparator=\"EQ\" SoftHard=\"Soft\" def:ItemOID=\"IT.LB.LBTESTCD\">\r\n          <CheckValue>MONO</CheckValue>\r\n        </RangeCheck>\r\n      </def:WhereClauseDef>\r\n      <def:WhereClauseDef OID=\"WC.LB_STRESU_UNITS_PHOS_STD\">\r\n        <RangeCheck Comparator=\"EQ\" SoftHard=\"Soft\" def:ItemOID=\"IT.LB.LBTESTCD\">\r\n          <CheckValue>PHOS</CheckValue>\r\n        </RangeCheck>\r\n      </def:WhereClauseDef>\r\n      <def:WhereClauseDef OID=\"WC.LB_STRESU_UNITS_PLAT_STD\">\r\n        <RangeCheck Comparator=\"EQ\" SoftHard=\"Soft\" def:ItemOID=\"IT.LB.LBTESTCD\">\r\n          <CheckValue>PLAT</CheckValue>\r\n        </RangeCheck>\r\n      </def:WhereClauseDef>\r\n      <def:WhereClauseDef OID=\"WC.LB_STRESU_UNITS_PROT_STD\">\r\n        <RangeCheck Comparator=\"EQ\" SoftHard=\"Soft\" def:ItemOID=\"IT.LB.LBTESTCD\">\r\n          <CheckValue>PROT</CheckValue>\r\n        </RangeCheck>\r\n      </def:WhereClauseDef>\r\n      <def:WhereClauseDef OID=\"WC.LB_STRESU_UNITS_RBC_STD\">\r\n        <RangeCheck Comparator=\"EQ\" SoftHard=\"Soft\" def:ItemOID=\"IT.LB.LBTESTCD\">\r\n          <CheckValue>RBC</CheckValue>\r\n        </RangeCheck>\r\n      </def:WhereClauseDef>\r\n      <def:WhereClauseDef OID=\"WC.LB_STRESU_UNITS_SODIUM_STD\">\r\n        <RangeCheck Comparator=\"EQ\" SoftHard=\"Soft\" def:ItemOID=\"IT.LB.LBTESTCD\">\r\n          <CheckValue>SODIUM</CheckValue>\r\n        </RangeCheck>\r\n      </def:WhereClauseDef>\r\n      <def:WhereClauseDef OID=\"WC.LB_STRESU_UNITS_TSH_STD\">\r\n        <RangeCheck Comparator=\"EQ\" SoftHard=\"Soft\" def:ItemOID=\"IT.LB.LBTESTCD\">\r\n          <CheckValue>TSH</CheckValue>\r\n        </RangeCheck>\r\n      </def:WhereClauseDef>\r\n      <def:WhereClauseDef OID=\"WC.LB_STRESU_UNITS_URATE_STD\">\r\n        <RangeCheck Comparator=\"EQ\" SoftHard=\"Soft\" def:ItemOID=\"IT.LB.LBTESTCD\">\r\n          <CheckValue>URATE</CheckValue>\r\n        </RangeCheck>\r\n      </def:WhereClauseDef>\r\n      <def:WhereClauseDef OID=\"WC.LB_STRESU_UNITS_UREAN_STD\">\r\n        <RangeCheck Comparator=\"EQ\" SoftHard=\"Soft\" def:ItemOID=\"IT.LB.LBTESTCD\">\r\n          <CheckValue>UREAN</CheckValue>\r\n        </RangeCheck>\r\n      </def:WhereClauseDef>\r\n      <def:WhereClauseDef OID=\"WC.LB_STRESU_UNITS_VITB12_STD\">\r\n        <RangeCheck Comparator=\"EQ\" SoftHard=\"Soft\" def:ItemOID=\"IT.LB.LBTESTCD\">\r\n          <CheckValue>VITB12</CheckValue>\r\n        </RangeCheck>\r\n      </def:WhereClauseDef>\r\n      <def:WhereClauseDef OID=\"WC.LB_STRESU_UNITS_WBC_STD\">\r\n        <RangeCheck Comparator=\"EQ\" SoftHard=\"Soft\" def:ItemOID=\"IT.LB.LBTESTCD\">\r\n          <CheckValue>WBC</CheckValue>\r\n        </RangeCheck>\r\n      </def:WhereClauseDef>\r\n      <def:WhereClauseDef OID=\"WC.NVCLSIG\">\r\n        <RangeCheck Comparator=\"EQ\" SoftHard=\"Soft\" def:ItemOID=\"IT.SUPPNV.QNAM\">\r\n          <CheckValue>NVCLSIG</CheckValue>\r\n        </RangeCheck>\r\n      </def:WhereClauseDef>\r\n      <def:WhereClauseDef OID=\"WC.OECLSIG\">\r\n        <RangeCheck Comparator=\"EQ\" SoftHard=\"Soft\" def:ItemOID=\"IT.SUPPOE.QNAM\">\r\n          <CheckValue>OECLSIG</CheckValue>\r\n        </RangeCheck>\r\n      </def:WhereClauseDef>\r\n      <def:WhereClauseDef OID=\"WC.OEORRES1\">\r\n        <RangeCheck Comparator=\"EQ\" SoftHard=\"Soft\" def:ItemOID=\"IT.OE.OETESTCD\">\r\n          <CheckValue>INTP</CheckValue>\r\n        </RangeCheck>\r\n      </def:WhereClauseDef>\r\n      <def:WhereClauseDef OID=\"WC.OEORRES2\">\r\n        <RangeCheck Comparator=\"EQ\" SoftHard=\"Soft\" def:ItemOID=\"IT.OE.OETESTCD\">\r\n          <CheckValue>ABDETAIL</CheckValue>\r\n        </RangeCheck>\r\n      </def:WhereClauseDef>\r\n      <def:WhereClauseDef OID=\"WC.PHQ0101-09\">\r\n        <RangeCheck Comparator=\"IN\" SoftHard=\"Soft\" def:ItemOID=\"IT.QSPH.QSTESTCD\">\r\n          <CheckValue>PHQ0101</CheckValue>\r\n          <CheckValue>PHQ0102</CheckValue>\r\n          <CheckValue>PHQ0103</CheckValue>\r\n          <CheckValue>PHQ0104</CheckValue>\r\n          <CheckValue>PHQ0105</CheckValue>\r\n          <CheckValue>PHQ0106</CheckValue>\r\n          <CheckValue>PHQ0107</CheckValue>\r\n          <CheckValue>PHQ0108</CheckValue>\r\n          <CheckValue>PHQ0109</CheckValue>\r\n        </RangeCheck>\r\n      </def:WhereClauseDef>\r\n      <def:WhereClauseDef OID=\"WC.PHQ0101-09S\">\r\n        <RangeCheck Comparator=\"IN\" SoftHard=\"Soft\" def:ItemOID=\"IT.QSPH.QSTESTCD\">\r\n          <CheckValue>PHQ0101</CheckValue>\r\n          <CheckValue>PHQ0102</CheckValue>\r\n          <CheckValue>PHQ0103</CheckValue>\r\n          <CheckValue>PHQ0104</CheckValue>\r\n          <CheckValue>PHQ0105</CheckValue>\r\n          <CheckValue>PHQ0106</CheckValue>\r\n          <CheckValue>PHQ0107</CheckValue>\r\n          <CheckValue>PHQ0108</CheckValue>\r\n          <CheckValue>PHQ0109</CheckValue>\r\n        </RangeCheck>\r\n      </def:WhereClauseDef>\r\n      <def:WhereClauseDef OID=\"WC.PHQ0110\">\r\n        <RangeCheck Comparator=\"EQ\" SoftHard=\"Soft\" def:ItemOID=\"IT.QSPH.QSTESTCD\">\r\n          <CheckValue>PHQ0110</CheckValue>\r\n        </RangeCheck>\r\n      </def:WhereClauseDef>\r\n      <def:WhereClauseDef OID=\"WC.PHQ0110S\">\r\n        <RangeCheck Comparator=\"EQ\" SoftHard=\"Soft\" def:ItemOID=\"IT.QSPH.QSTESTCD\">\r\n          <CheckValue>PHQ0110</CheckValue>\r\n        </RangeCheck>\r\n      </def:WhereClauseDef>\r\n      <def:WhereClauseDef OID=\"WC.PHQ0111\">\r\n        <RangeCheck Comparator=\"EQ\" SoftHard=\"Soft\" def:ItemOID=\"IT.QSPH.QSTESTCD\">\r\n          <CheckValue>PHQ0111</CheckValue>\r\n        </RangeCheck>\r\n      </def:WhereClauseDef>\r\n      <def:WhereClauseDef OID=\"WC.PHQ0111S\">\r\n        <RangeCheck Comparator=\"EQ\" SoftHard=\"Soft\" def:ItemOID=\"IT.QSPH.QSTESTCD\">\r\n          <CheckValue>PHQ0111</CheckValue>\r\n        </RangeCheck>\r\n      </def:WhereClauseDef>\r\n      <def:WhereClauseDef OID=\"WC.PULSE\">\r\n        <RangeCheck Comparator=\"EQ\" SoftHard=\"Soft\" def:ItemOID=\"IT.VS.VSTESTCD\">\r\n          <CheckValue>PULSE</CheckValue>\r\n        </RangeCheck>\r\n      </def:WhereClauseDef>\r\n      <def:WhereClauseDef OID=\"WC.PULSEU\">\r\n        <RangeCheck Comparator=\"EQ\" SoftHard=\"Soft\" def:ItemOID=\"IT.VS.VSTESTCD\">\r\n          <CheckValue>PULSE</CheckValue>\r\n        </RangeCheck>\r\n      </def:WhereClauseDef>\r\n      <def:WhereClauseDef OID=\"WC.RACE\">\r\n        <RangeCheck Comparator=\"NE\" SoftHard=\"Soft\" def:ItemOID=\"IT.DM.RACE\">\r\n          <CheckValue>MULTIPLE</CheckValue>\r\n        </RangeCheck>\r\n      </def:WhereClauseDef>\r\n      <def:WhereClauseDef OID=\"WC.RACE1\">\r\n        <RangeCheck Comparator=\"EQ\" SoftHard=\"Soft\" def:ItemOID=\"IT.SUPPDM.QNAM\">\r\n          <CheckValue>RACE1</CheckValue>\r\n        </RangeCheck>\r\n      </def:WhereClauseDef>\r\n      <def:WhereClauseDef OID=\"WC.RACE2\">\r\n        <RangeCheck Comparator=\"EQ\" SoftHard=\"Soft\" def:ItemOID=\"IT.SUPPDM.QNAM\">\r\n          <CheckValue>RACE2</CheckValue>\r\n        </RangeCheck>\r\n      </def:WhereClauseDef>\r\n      <def:WhereClauseDef OID=\"WC.RACE3\">\r\n        <RangeCheck Comparator=\"EQ\" SoftHard=\"Soft\" def:ItemOID=\"IT.SUPPDM.QNAM\">\r\n          <CheckValue>RACE3</CheckValue>\r\n        </RangeCheck>\r\n      </def:WhereClauseDef>\r\n      <def:WhereClauseDef OID=\"WC.RACE4\">\r\n        <RangeCheck Comparator=\"EQ\" SoftHard=\"Soft\" def:ItemOID=\"IT.SUPPDM.QNAM\">\r\n          <CheckValue>RACE4</CheckValue>\r\n        </RangeCheck>\r\n      </def:WhereClauseDef>\r\n      <def:WhereClauseDef OID=\"WC.RACE5\">\r\n        <RangeCheck Comparator=\"EQ\" SoftHard=\"Soft\" def:ItemOID=\"IT.SUPPDM.QNAM\">\r\n          <CheckValue>RACE5</CheckValue>\r\n        </RangeCheck>\r\n      </def:WhereClauseDef>\r\n      <def:WhereClauseDef OID=\"WC.RACEMULT\">\r\n        <RangeCheck Comparator=\"EQ\" SoftHard=\"Soft\" def:ItemOID=\"IT.DM.RACE\">\r\n          <CheckValue>MULTIPLE</CheckValue>\r\n        </RangeCheck>\r\n      </def:WhereClauseDef>\r\n      <def:WhereClauseDef OID=\"WC.TEMP\">\r\n        <RangeCheck Comparator=\"EQ\" SoftHard=\"Soft\" def:ItemOID=\"IT.VS.VSTESTCD\">\r\n          <CheckValue>TEMP</CheckValue>\r\n        </RangeCheck>\r\n      </def:WhereClauseDef>\r\n      <def:WhereClauseDef OID=\"WC.TEMPU\">\r\n        <RangeCheck Comparator=\"EQ\" SoftHard=\"Soft\" def:ItemOID=\"IT.VS.VSTESTCD\">\r\n          <CheckValue>TEMP</CheckValue>\r\n        </RangeCheck>\r\n      </def:WhereClauseDef>\r\n      <def:WhereClauseDef OID=\"WC.TS_BLIND\">\r\n        <RangeCheck Comparator=\"EQ\" SoftHard=\"Soft\" def:ItemOID=\"IT.TS.TSPARMCD\">\r\n          <CheckValue>TBLIND</CheckValue>\r\n        </RangeCheck>\r\n      </def:WhereClauseDef>\r\n      <def:WhereClauseDef OID=\"WC.TS_CONTROL\">\r\n        <RangeCheck Comparator=\"EQ\" SoftHard=\"Soft\" def:ItemOID=\"IT.TS.TSPARMCD\">\r\n          <CheckValue>TCNTRL</CheckValue>\r\n        </RangeCheck>\r\n      </def:WhereClauseDef>\r\n      <def:WhereClauseDef OID=\"WC.TS_COUNTRY\">\r\n        <RangeCheck Comparator=\"EQ\" SoftHard=\"Soft\" def:ItemOID=\"IT.TS.TSPARMCD\">\r\n          <CheckValue>FCNTRY</CheckValue>\r\n        </RangeCheck>\r\n      </def:WhereClauseDef>\r\n      <def:WhereClauseDef OID=\"WC.TS_DATE\">\r\n        <RangeCheck Comparator=\"IN\" SoftHard=\"Soft\" def:ItemOID=\"IT.TS.TSPARMCD\">\r\n          <CheckValue>DCUTDTC</CheckValue>\r\n          <CheckValue>SENDTC</CheckValue>\r\n          <CheckValue>SSTDTC</CheckValue>\r\n        </RangeCheck>\r\n      </def:WhereClauseDef>\r\n      <def:WhereClauseDef OID=\"WC.TS_DURATION\">\r\n        <RangeCheck Comparator=\"EQ\" SoftHard=\"Soft\" def:ItemOID=\"IT.TS.TSPARMCD\">\r\n          <CheckValue>TS_DURATION</CheckValue>\r\n        </RangeCheck>\r\n      </def:WhereClauseDef>\r\n      <def:WhereClauseDef OID=\"WC.TS_FLOAT\">\r\n        <RangeCheck Comparator=\"EQ\" SoftHard=\"Soft\" def:ItemOID=\"IT.TS.TSPARMCD\">\r\n          <CheckValue>TS_FLOAT</CheckValue>\r\n        </RangeCheck>\r\n      </def:WhereClauseDef>\r\n      <def:WhereClauseDef OID=\"WC.TS_FREQ\">\r\n        <RangeCheck Comparator=\"EQ\" SoftHard=\"Soft\" def:ItemOID=\"IT.TS.TSPARMCD\">\r\n          <CheckValue>DOSFRQ</CheckValue>\r\n        </RangeCheck>\r\n      </def:WhereClauseDef>\r\n      <def:WhereClauseDef OID=\"WC.TS_FRM\">\r\n        <RangeCheck Comparator=\"EQ\" SoftHard=\"Soft\" def:ItemOID=\"IT.TS.TSPARMCD\">\r\n          <CheckValue>DOSFRM</CheckValue>\r\n        </RangeCheck>\r\n      </def:WhereClauseDef>\r\n      <def:WhereClauseDef OID=\"WC.TS_INDIC\">\r\n        <RangeCheck Comparator=\"EQ\" SoftHard=\"Soft\" def:ItemOID=\"IT.TS.TSPARMCD\">\r\n          <CheckValue>INDIC</CheckValue>\r\n        </RangeCheck>\r\n      </def:WhereClauseDef>\r\n      <def:WhereClauseDef OID=\"WC.TS_INTEGER\">\r\n        <RangeCheck Comparator=\"IN\" SoftHard=\"Soft\" def:ItemOID=\"IT.TS.TSPARMCD\">\r\n          <CheckValue>ACTSUB</CheckValue>\r\n          <CheckValue>AGEMAX</CheckValue>\r\n          <CheckValue>AGEMIN</CheckValue>\r\n          <CheckValue>DOSE</CheckValue>\r\n          <CheckValue>NARMS</CheckValue>\r\n          <CheckValue>PLANSUB</CheckValue>\r\n        </RangeCheck>\r\n      </def:WhereClauseDef>\r\n      <def:WhereClauseDef OID=\"WC.TS_INTTYPE\">\r\n        <RangeCheck Comparator=\"EQ\" SoftHard=\"Soft\" def:ItemOID=\"IT.TS.TSPARMCD\">\r\n          <CheckValue>INTTYPE</CheckValue>\r\n        </RangeCheck>\r\n      </def:WhereClauseDef>\r\n      <def:WhereClauseDef OID=\"WC.TS_MODEL\">\r\n        <RangeCheck Comparator=\"EQ\" SoftHard=\"Soft\" def:ItemOID=\"IT.TS.TSPARMCD\">\r\n          <CheckValue>INTMODEL</CheckValue>\r\n        </RangeCheck>\r\n      </def:WhereClauseDef>\r\n      <def:WhereClauseDef OID=\"WC.TS_OBJPRIM\">\r\n        <RangeCheck Comparator=\"EQ\" SoftHard=\"Soft\" def:ItemOID=\"IT.TS.TSPARMCD\">\r\n          <CheckValue>OBJPRIM</CheckValue>\r\n        </RangeCheck>\r\n      </def:WhereClauseDef>\r\n      <def:WhereClauseDef OID=\"WC.TS_OBJSEC\">\r\n        <RangeCheck Comparator=\"EQ\" SoftHard=\"Soft\" def:ItemOID=\"IT.TS.TSPARMCD\">\r\n          <CheckValue>OBJSEC</CheckValue>\r\n        </RangeCheck>\r\n      </def:WhereClauseDef>\r\n      <def:WhereClauseDef OID=\"WC.TS_OUTMSPRI\">\r\n        <RangeCheck Comparator=\"EQ\" SoftHard=\"Soft\" def:ItemOID=\"IT.TS.TSPARMCD\">\r\n          <CheckValue>OUTMSPRI</CheckValue>\r\n        </RangeCheck>\r\n      </def:WhereClauseDef>\r\n      <def:WhereClauseDef OID=\"WC.TS_PCLAS\">\r\n        <RangeCheck Comparator=\"EQ\" SoftHard=\"Soft\" def:ItemOID=\"IT.TS.TSPARMCD\">\r\n          <CheckValue>PCLAS</CheckValue>\r\n        </RangeCheck>\r\n      </def:WhereClauseDef>\r\n      <def:WhereClauseDef OID=\"WC.TS_PHASE\">\r\n        <RangeCheck Comparator=\"EQ\" SoftHard=\"Soft\" def:ItemOID=\"IT.TS.TSPARMCD\">\r\n          <CheckValue>TPHASE</CheckValue>\r\n        </RangeCheck>\r\n      </def:WhereClauseDef>\r\n      <def:WhereClauseDef OID=\"WC.TS_REGID\">\r\n        <RangeCheck Comparator=\"EQ\" SoftHard=\"Soft\" def:ItemOID=\"IT.TS.TSPARMCD\">\r\n          <CheckValue>REGID</CheckValue>\r\n        </RangeCheck>\r\n      </def:WhereClauseDef>\r\n      <def:WhereClauseDef OID=\"WC.TS_ROUTE\">\r\n        <RangeCheck Comparator=\"EQ\" SoftHard=\"Soft\" def:ItemOID=\"IT.TS.TSPARMCD\">\r\n          <CheckValue>ROUTE</CheckValue>\r\n        </RangeCheck>\r\n      </def:WhereClauseDef>\r\n      <def:WhereClauseDef OID=\"WC.TS_SDTM\">\r\n        <RangeCheck Comparator=\"IN\" SoftHard=\"Soft\" def:ItemOID=\"IT.TS.TSPARMCD\">\r\n          <CheckValue>SDTIGVER</CheckValue>\r\n          <CheckValue>SDTMVER</CheckValue>\r\n        </RangeCheck>\r\n      </def:WhereClauseDef>\r\n      <def:WhereClauseDef OID=\"WC.TS_SEX\">\r\n        <RangeCheck Comparator=\"EQ\" SoftHard=\"Soft\" def:ItemOID=\"IT.TS.TSPARMCD\">\r\n          <CheckValue>SEXPOP</CheckValue>\r\n        </RangeCheck>\r\n      </def:WhereClauseDef>\r\n      <def:WhereClauseDef OID=\"WC.TS_SPONSOR\">\r\n        <RangeCheck Comparator=\"EQ\" SoftHard=\"Soft\" def:ItemOID=\"IT.TS.TSPARMCD\">\r\n          <CheckValue>SPONSOR</CheckValue>\r\n        </RangeCheck>\r\n      </def:WhereClauseDef>\r\n      <def:WhereClauseDef OID=\"WC.TS_STOPRULE\">\r\n        <RangeCheck Comparator=\"EQ\" SoftHard=\"Soft\" def:ItemOID=\"IT.TS.TSPARMCD\">\r\n          <CheckValue>STOPRULE</CheckValue>\r\n        </RangeCheck>\r\n      </def:WhereClauseDef>\r\n      <def:WhereClauseDef OID=\"WC.TS_STYPE\">\r\n        <RangeCheck Comparator=\"EQ\" SoftHard=\"Soft\" def:ItemOID=\"IT.TS.TSPARMCD\">\r\n          <CheckValue>STYPE</CheckValue>\r\n        </RangeCheck>\r\n      </def:WhereClauseDef>\r\n      <def:WhereClauseDef OID=\"WC.TS_TDIGRP\">\r\n        <RangeCheck Comparator=\"EQ\" SoftHard=\"Soft\" def:ItemOID=\"IT.TS.TSPARMCD\">\r\n          <CheckValue>TDIGRP</CheckValue>\r\n        </RangeCheck>\r\n      </def:WhereClauseDef>\r\n      <def:WhereClauseDef OID=\"WC.TS_TINDTP\">\r\n        <RangeCheck Comparator=\"EQ\" SoftHard=\"Soft\" def:ItemOID=\"IT.TS.TSPARMCD\">\r\n          <CheckValue>TINDTP</CheckValue>\r\n        </RangeCheck>\r\n      </def:WhereClauseDef>\r\n      <def:WhereClauseDef OID=\"WC.TS_TITLE\">\r\n        <RangeCheck Comparator=\"EQ\" SoftHard=\"Soft\" def:ItemOID=\"IT.TS.TSPARMCD\">\r\n          <CheckValue>TITLE</CheckValue>\r\n        </RangeCheck>\r\n      </def:WhereClauseDef>\r\n      <def:WhereClauseDef OID=\"WC.TS_TRT\">\r\n        <RangeCheck Comparator=\"EQ\" SoftHard=\"Soft\" def:ItemOID=\"IT.TS.TSPARMCD\">\r\n          <CheckValue>TRT</CheckValue>\r\n        </RangeCheck>\r\n      </def:WhereClauseDef>\r\n      <def:WhereClauseDef OID=\"WC.TS_TTYPE\">\r\n        <RangeCheck Comparator=\"EQ\" SoftHard=\"Soft\" def:ItemOID=\"IT.TS.TSPARMCD\">\r\n          <CheckValue>TTYPE</CheckValue>\r\n        </RangeCheck>\r\n      </def:WhereClauseDef>\r\n      <def:WhereClauseDef OID=\"WC.TS_UNIT\">\r\n        <RangeCheck Comparator=\"EQ\" SoftHard=\"Soft\" def:ItemOID=\"IT.TS.TSPARMCD\">\r\n          <CheckValue>DOSU</CheckValue>\r\n        </RangeCheck>\r\n      </def:WhereClauseDef>\r\n      <def:WhereClauseDef OID=\"WC.TS_YN\">\r\n        <RangeCheck Comparator=\"IN\" SoftHard=\"Soft\" def:ItemOID=\"IT.TS.TSPARMCD\">\r\n          <CheckValue>ADAPT</CheckValue>\r\n          <CheckValue>ADDON</CheckValue>\r\n          <CheckValue>HLTSUBJI</CheckValue>\r\n          <CheckValue>RANDOM</CheckValue>\r\n        </RangeCheck>\r\n      </def:WhereClauseDef>\r\n      <def:WhereClauseDef OID=\"WC.WEIGHT\">\r\n        <RangeCheck Comparator=\"EQ\" SoftHard=\"Soft\" def:ItemOID=\"IT.VS.VSTESTCD\">\r\n          <CheckValue>WEIGHT</CheckValue>\r\n        </RangeCheck>\r\n      </def:WhereClauseDef>\r\n      <def:WhereClauseDef OID=\"WC.WEIGHTU\">\r\n        <RangeCheck Comparator=\"EQ\" SoftHard=\"Soft\" def:ItemOID=\"IT.VS.VSTESTCD\">\r\n          <CheckValue>WEIGHT</CheckValue>\r\n        </RangeCheck>\r\n      </def:WhereClauseDef>\r\n\r\n\r\n      <!-- ************************************************************************************ -->\r\n      <!-- ItemGroupDef Definitions Section (Datasets and and first set of variable properties) -->\r\n      <!-- ************************************************************************************ -->\r\n\r\n      <!-- Dataset Definition (TA) -->\r\n      <ItemGroupDef OID=\"IG.TA\" Name=\"TA\" Domain=\"TA\"\r\n        Repeating=\"No\" IsReferenceData=\"Yes\" SASDatasetName=\"TA\"\r\n        def:Structure=\"One record per planned Element per Arm\"\r\n        Purpose=\"Tabulation\" def:StandardOID=\"STD.1\"\r\n def:ArchiveLocationID=\"LF.TA\">\r\n        <Description>\r\n          <TranslatedText xml:lang=\"en\">Trial Arms</TranslatedText>\r\n        </Description>\r\n        <ItemRef ItemOID=\"IT.TA.STUDYID\" Mandatory=\"Yes\" OrderNumber=\"1\" KeySequence=\"1\" Role=\"Identifier\"/>\r\n        <ItemRef ItemOID=\"IT.TA.DOMAIN\" Mandatory=\"Yes\" OrderNumber=\"2\" Role=\"Identifier\"/>\r\n        <ItemRef ItemOID=\"IT.TA.ARMCD\" Mandatory=\"Yes\" OrderNumber=\"3\" KeySequence=\"2\" Role=\"Topic\"/>\r\n        <ItemRef ItemOID=\"IT.TA.ARM\" Mandatory=\"Yes\" OrderNumber=\"4\" Role=\"Synonym Qualifier\"/>\r\n        <ItemRef ItemOID=\"IT.TA.TAETORD\" Mandatory=\"Yes\" OrderNumber=\"5\" KeySequence=\"3\" Role=\"Timing\"/>\r\n        <ItemRef ItemOID=\"IT.TA.ETCD\" Mandatory=\"Yes\" OrderNumber=\"6\" Role=\"Record Qualifier\"/>\r\n        <ItemRef ItemOID=\"IT.TA.ELEMENT\" Mandatory=\"No\" OrderNumber=\"7\" Role=\"Synonym Qualifier\"/>\r\n        <ItemRef ItemOID=\"IT.TA.TABRANCH\" Mandatory=\"No\" OrderNumber=\"8\" Role=\"Rule\"/>\r\n        <ItemRef ItemOID=\"IT.TA.TATRANS\" Mandatory=\"No\" OrderNumber=\"9\" Role=\"Rule\"/>\r\n        <ItemRef ItemOID=\"IT.TA.EPOCH\" Mandatory=\"Yes\" OrderNumber=\"10\" MethodOID=\"MT.EPOCH\" Role=\"Timing\"/>\r\n        <def:Class Name=\"TRIAL DESIGN\"/>\r\n        <def:leaf ID=\"LF.TA\" xlink:href=\"ta.xpt\">\r\n          <def:title>ta.xpt</def:title>\r\n        </def:leaf>\r\n      </ItemGroupDef>\r\n      <!-- Dataset Definition (TE) -->\r\n      <ItemGroupDef OID=\"IG.TE\" Name=\"TE\" Domain=\"TE\"\r\n        Repeating=\"No\" IsReferenceData=\"Yes\" SASDatasetName=\"TE\"\r\n        def:Structure=\"One record per planned Element\"\r\n        Purpose=\"Tabulation\" def:StandardOID=\"STD.1\"\r\n def:ArchiveLocationID=\"LF.TE\">\r\n        <Description>\r\n          <TranslatedText xml:lang=\"en\">Trial Elements</TranslatedText>\r\n        </Description>\r\n        <ItemRef ItemOID=\"IT.TE.STUDYID\" Mandatory=\"Yes\" OrderNumber=\"1\" KeySequence=\"1\" Role=\"Identifier\"/>\r\n        <ItemRef ItemOID=\"IT.TE.DOMAIN\" Mandatory=\"Yes\" OrderNumber=\"2\" Role=\"Identifier\"/>\r\n        <ItemRef ItemOID=\"IT.TE.ETCD\" Mandatory=\"Yes\" OrderNumber=\"3\" KeySequence=\"2\" Role=\"Topic\"/>\r\n        <ItemRef ItemOID=\"IT.TE.ELEMENT\" Mandatory=\"Yes\" OrderNumber=\"4\" Role=\"Synonym Qualifier\"/>\r\n        <ItemRef ItemOID=\"IT.TE.TESTRL\" Mandatory=\"Yes\" OrderNumber=\"5\" Role=\"Rule\"/>\r\n        <ItemRef ItemOID=\"IT.TE.TEENRL\" Mandatory=\"No\" OrderNumber=\"6\" Role=\"Rule\"/>\r\n        <def:Class Name=\"TRIAL DESIGN\"/>\r\n        <def:leaf ID=\"LF.TE\" xlink:href=\"te.xpt\">\r\n          <def:title>te.xpt</def:title>\r\n        </def:leaf>\r\n      </ItemGroupDef>\r\n      <!-- Dataset Definition (TI) -->\r\n      <ItemGroupDef OID=\"IG.TI\" Name=\"TI\" Domain=\"TI\"\r\n        Repeating=\"No\" IsReferenceData=\"Yes\" SASDatasetName=\"TI\"\r\n        def:Structure=\"One record per I/E criterion\"\r\n        Purpose=\"Tabulation\" def:StandardOID=\"STD.1\"\r\n def:ArchiveLocationID=\"LF.TI\">\r\n        <Description>\r\n          <TranslatedText xml:lang=\"en\">Trial Inclusion/Exclusion Criteria</TranslatedText>\r\n        </Description>\r\n        <ItemRef ItemOID=\"IT.TI.STUDYID\" Mandatory=\"Yes\" OrderNumber=\"1\" KeySequence=\"1\" Role=\"Identifier\"/>\r\n        <ItemRef ItemOID=\"IT.TI.DOMAIN\" Mandatory=\"Yes\" OrderNumber=\"2\" Role=\"Identifier\"/>\r\n        <ItemRef ItemOID=\"IT.TI.IETESTCD\" Mandatory=\"Yes\" OrderNumber=\"3\" KeySequence=\"2\" Role=\"Topic\"/>\r\n        <ItemRef ItemOID=\"IT.TI.IETEST\" Mandatory=\"Yes\" OrderNumber=\"4\" Role=\"Synonym Qualifier\"/>\r\n        <ItemRef ItemOID=\"IT.TI.IECAT\" Mandatory=\"Yes\" OrderNumber=\"5\" Role=\"Grouping Qualifier\"/>\r\n        <ItemRef ItemOID=\"IT.TI.TIVERS\" Mandatory=\"No\" OrderNumber=\"6\" KeySequence=\"3\" Role=\"Record Qualifier\"/>\r\n        <def:Class Name=\"TRIAL DESIGN\"/>\r\n        <def:leaf ID=\"LF.TI\" xlink:href=\"ti.xpt\">\r\n          <def:title>ti.xpt</def:title>\r\n        </def:leaf>\r\n      </ItemGroupDef>\r\n      <!-- Dataset Definition (TS) -->\r\n      <ItemGroupDef OID=\"IG.TS\" Name=\"TS\" Domain=\"TS\"\r\n        Repeating=\"No\" IsReferenceData=\"Yes\" SASDatasetName=\"TS\"\r\n        def:Structure=\"One record per trial summary parameter value\"\r\n        Purpose=\"Tabulation\" def:StandardOID=\"STD.1\"\r\n def:ArchiveLocationID=\"LF.TS\">\r\n        <Description>\r\n          <TranslatedText xml:lang=\"en\">Trial Summary</TranslatedText>\r\n        </Description>\r\n        <ItemRef ItemOID=\"IT.TS.STUDYID\" Mandatory=\"Yes\" OrderNumber=\"1\" KeySequence=\"1\" Role=\"Identifier\"/>\r\n        <ItemRef ItemOID=\"IT.TS.DOMAIN\" Mandatory=\"Yes\" OrderNumber=\"2\" Role=\"Identifier\"/>\r\n        <ItemRef ItemOID=\"IT.TS.TSSEQ\" Mandatory=\"Yes\" OrderNumber=\"3\" KeySequence=\"4\" MethodOID=\"MT.TSSEQ\" Role=\"Identifier\"/>\r\n        <ItemRef ItemOID=\"IT.TS.TSGRPID\" Mandatory=\"No\" OrderNumber=\"4\" Role=\"Identifier\"/>\r\n        <ItemRef ItemOID=\"IT.TS.TSPARMCD\" Mandatory=\"Yes\" OrderNumber=\"5\" KeySequence=\"2\" Role=\"Topic\"/>\r\n        <ItemRef ItemOID=\"IT.TS.TSPARM\" Mandatory=\"Yes\" OrderNumber=\"6\" Role=\"Synonym Qualifier\"/>\r\n        <ItemRef ItemOID=\"IT.TS.TSVAL\" Mandatory=\"No\" OrderNumber=\"7\" KeySequence=\"3\" Role=\"Result Qualifier\"/>\r\n        <ItemRef ItemOID=\"IT.TS.TSVALNF\" Mandatory=\"No\" OrderNumber=\"8\" Role=\"Result Qualifier\"/>\r\n        <ItemRef ItemOID=\"IT.TS.TSVALCD\" Mandatory=\"No\" OrderNumber=\"9\" Role=\"Result Qualifier\"/>\r\n        <ItemRef ItemOID=\"IT.TS.TSVCDREF\" Mandatory=\"No\" OrderNumber=\"10\" Role=\"Result Qualifier\"/>\r\n        <ItemRef ItemOID=\"IT.TS.TSVCDVER\" Mandatory=\"No\" OrderNumber=\"11\" Role=\"Result Qualifier\"/>\r\n        <def:Class Name=\"TRIAL DESIGN\"/>\r\n        <def:leaf ID=\"LF.TS\" xlink:href=\"ts.xpt\">\r\n          <def:title>ts.xpt</def:title>\r\n        </def:leaf>\r\n      </ItemGroupDef>\r\n      <!-- Dataset Definition (TV) -->\r\n      <ItemGroupDef OID=\"IG.TV\" Name=\"TV\" Domain=\"TV\"\r\n        Repeating=\"No\" IsReferenceData=\"Yes\" SASDatasetName=\"TV\"\r\n        def:Structure=\"One record per planned Visit per Arm\"\r\n        Purpose=\"Tabulation\" def:StandardOID=\"STD.1\"\r\n def:ArchiveLocationID=\"LF.TV\">\r\n        <Description>\r\n          <TranslatedText xml:lang=\"en\">Trial Visits</TranslatedText>\r\n        </Description>\r\n        <ItemRef ItemOID=\"IT.TV.STUDYID\" Mandatory=\"Yes\" OrderNumber=\"1\" KeySequence=\"1\" Role=\"Identifier\"/>\r\n        <ItemRef ItemOID=\"IT.TV.DOMAIN\" Mandatory=\"Yes\" OrderNumber=\"2\" Role=\"Identifier\"/>\r\n        <ItemRef ItemOID=\"IT.TV.VISITNUM\" Mandatory=\"Yes\" OrderNumber=\"3\" KeySequence=\"2\" Role=\"Topic\"/>\r\n        <ItemRef ItemOID=\"IT.TV.VISIT\" Mandatory=\"No\" OrderNumber=\"4\" Role=\"Synonym Qualifier\"/>\r\n        <ItemRef ItemOID=\"IT.TV.ARMCD\" Mandatory=\"No\" OrderNumber=\"5\" KeySequence=\"3\" Role=\"Record Qualifier\"/>\r\n        <ItemRef ItemOID=\"IT.TV.TVSTRL\" Mandatory=\"Yes\" OrderNumber=\"6\" Role=\"Rule\"/>\r\n        <ItemRef ItemOID=\"IT.TV.TVENRL\" Mandatory=\"No\" OrderNumber=\"7\" Role=\"Rule\"/>\r\n        <def:Class Name=\"TRIAL DESIGN\"/>\r\n        <def:leaf ID=\"LF.TV\" xlink:href=\"tv.xpt\">\r\n          <def:title>tv.xpt</def:title>\r\n        </def:leaf>\r\n      </ItemGroupDef>\r\n      <!-- Dataset Definition (DM) -->\r\n      <ItemGroupDef OID=\"IG.DM\" Name=\"DM\" Domain=\"DM\"\r\n        Repeating=\"No\" IsReferenceData=\"No\" SASDatasetName=\"DM\"\r\n        def:Structure=\"One record per subject\"\r\n        Purpose=\"Tabulation\" def:StandardOID=\"STD.1\"\r\n def:ArchiveLocationID=\"LF.DM\">\r\n        <Description>\r\n          <TranslatedText xml:lang=\"en\">Demographics</TranslatedText>\r\n        </Description>\r\n        <ItemRef ItemOID=\"IT.DM.STUDYID\" Mandatory=\"Yes\" OrderNumber=\"1\" KeySequence=\"1\" Role=\"Identifier\"/>\r\n        <ItemRef ItemOID=\"IT.DM.DOMAIN\" Mandatory=\"Yes\" OrderNumber=\"2\" Role=\"Identifier\"/>\r\n        <ItemRef ItemOID=\"IT.DM.USUBJID\" Mandatory=\"Yes\" OrderNumber=\"3\" KeySequence=\"2\" Role=\"Identifier\"/>\r\n        <ItemRef ItemOID=\"IT.DM.SUBJID\" Mandatory=\"Yes\" OrderNumber=\"4\" Role=\"Topic\"/>\r\n        <ItemRef ItemOID=\"IT.DM.RFSTDTC\" Mandatory=\"No\" OrderNumber=\"5\" MethodOID=\"MT.RFSTDTC\" Role=\"Record Qualifier\"/>\r\n        <ItemRef ItemOID=\"IT.DM.RFENDTC\" Mandatory=\"No\" OrderNumber=\"6\" MethodOID=\"MT.RFENDTC\" Role=\"Record Qualifier\"/>\r\n        <ItemRef ItemOID=\"IT.DM.RFXSTDTC\" Mandatory=\"No\" OrderNumber=\"7\" MethodOID=\"MT.RFXSTDTC\" Role=\"Record Qualifier\"/>\r\n        <ItemRef ItemOID=\"IT.DM.RFXENDTC\" Mandatory=\"No\" OrderNumber=\"8\" MethodOID=\"MT.RFXENDTC\" Role=\"Record Qualifier\"/>\r\n        <ItemRef ItemOID=\"IT.DM.RFICDTC\" Mandatory=\"No\" OrderNumber=\"9\" Role=\"Record Qualifier\"/>\r\n        <ItemRef ItemOID=\"IT.DM.RFPENDTC\" Mandatory=\"No\" OrderNumber=\"10\" MethodOID=\"MT.RFPENDTC\" Role=\"Record Qualifier\"/>\r\n        <ItemRef ItemOID=\"IT.DM.DTHDTC\" Mandatory=\"No\" OrderNumber=\"11\" Role=\"Record Qualifier\"/>\r\n        <ItemRef ItemOID=\"IT.DM.DTHFL\" Mandatory=\"No\" OrderNumber=\"12\" MethodOID=\"MT.DTHFL\" Role=\"Record Qualifier\"/>\r\n        <ItemRef ItemOID=\"IT.DM.SITEID\" Mandatory=\"Yes\" OrderNumber=\"13\" Role=\"Record Qualifier\"/>\r\n        <ItemRef ItemOID=\"IT.DM.BRTHDTC\" Mandatory=\"No\" OrderNumber=\"14\" Role=\"Record Qualifier\"/>\r\n        <ItemRef ItemOID=\"IT.DM.AGE\" Mandatory=\"No\" OrderNumber=\"15\" Role=\"Record Qualifier\"/>\r\n        <ItemRef ItemOID=\"IT.DM.AGEU\" Mandatory=\"No\" OrderNumber=\"16\" Role=\"Variable Qualifier\"/>\r\n        <ItemRef ItemOID=\"IT.DM.SEX\" Mandatory=\"Yes\" OrderNumber=\"17\" Role=\"Record Qualifier\"/>\r\n        <ItemRef ItemOID=\"IT.DM.RACE\" Mandatory=\"No\" OrderNumber=\"18\" Role=\"Record Qualifier\"/>\r\n        <ItemRef ItemOID=\"IT.DM.ETHNIC\" Mandatory=\"No\" OrderNumber=\"19\" Role=\"Record Qualifier\"/>\r\n        <ItemRef ItemOID=\"IT.DM.ARMCD\" Mandatory=\"No\" OrderNumber=\"20\" Role=\"Record Qualifier\"/>\r\n        <ItemRef ItemOID=\"IT.DM.ARM\" Mandatory=\"No\" OrderNumber=\"21\" Role=\"Synonym Qualifier\"/>\r\n        <ItemRef ItemOID=\"IT.DM.ACTARMCD\" Mandatory=\"No\" OrderNumber=\"22\" Role=\"Record Qualifier\"/>\r\n        <ItemRef ItemOID=\"IT.DM.ACTARM\" Mandatory=\"No\" OrderNumber=\"23\" Role=\"Synonym Qualifier\"/>\r\n        <ItemRef ItemOID=\"IT.DM.ARMNRS\" Mandatory=\"No\" OrderNumber=\"24\" Role=\"Record Qualifier\"/>\r\n        <ItemRef ItemOID=\"IT.DM.ACTARMUD\" Mandatory=\"No\" OrderNumber=\"25\" Role=\"Record Qualifier\"/>\r\n        <ItemRef ItemOID=\"IT.DM.COUNTRY\" Mandatory=\"Yes\" OrderNumber=\"26\" Role=\"Record Qualifier\"/>\r\n        <def:Class Name=\"SPECIAL PURPOSE\"/>\r\n        <def:leaf ID=\"LF.DM\" xlink:href=\"dm.xpt\">\r\n          <def:title>dm.xpt</def:title>\r\n        </def:leaf>\r\n      </ItemGroupDef>\r\n      <!-- Dataset Definition (SE) -->\r\n      <ItemGroupDef OID=\"IG.SE\" Name=\"SE\" Domain=\"SE\"\r\n        Repeating=\"Yes\" IsReferenceData=\"No\" SASDatasetName=\"SE\"\r\n        def:Structure=\"One record per actual Element per subject\"\r\n        Purpose=\"Tabulation\" def:StandardOID=\"STD.1\"\r\n def:ArchiveLocationID=\"LF.SE\">\r\n        <Description>\r\n          <TranslatedText xml:lang=\"en\">Subject Elements</TranslatedText>\r\n        </Description>\r\n        <ItemRef ItemOID=\"IT.SE.STUDYID\" Mandatory=\"Yes\" OrderNumber=\"1\" KeySequence=\"1\" Role=\"Identifier\"/>\r\n        <ItemRef ItemOID=\"IT.SE.DOMAIN\" Mandatory=\"Yes\" OrderNumber=\"2\" Role=\"Identifier\"/>\r\n        <ItemRef ItemOID=\"IT.SE.USUBJID\" Mandatory=\"Yes\" OrderNumber=\"3\" KeySequence=\"2\" Role=\"Identifier\"/>\r\n        <ItemRef ItemOID=\"IT.SE.SESEQ\" Mandatory=\"Yes\" OrderNumber=\"4\" MethodOID=\"MT.SEQ\" Role=\"Identifier\"/>\r\n        <ItemRef ItemOID=\"IT.SE.ETCD\" Mandatory=\"Yes\" OrderNumber=\"5\" KeySequence=\"4\" Role=\"Topic\"/>\r\n        <ItemRef ItemOID=\"IT.SE.ELEMENT\" Mandatory=\"No\" OrderNumber=\"6\" Role=\"Synonym Qualifier\"/>\r\n        <ItemRef ItemOID=\"IT.SE.EPOCH\" Mandatory=\"No\" OrderNumber=\"7\" MethodOID=\"MT.EPOCH\" Role=\"Timing\"/>\r\n        <ItemRef ItemOID=\"IT.SE.SESTDTC\" Mandatory=\"Yes\" OrderNumber=\"8\" KeySequence=\"3\" MethodOID=\"MT.SESTDTC\" Role=\"Timing\"/>\r\n        <ItemRef ItemOID=\"IT.SE.SEENDTC\" Mandatory=\"No\" OrderNumber=\"9\" MethodOID=\"MT.SEENDTC\" Role=\"Timing\"/>\r\n        <ItemRef ItemOID=\"IT.SE.SESTDY\" Mandatory=\"No\" OrderNumber=\"10\" MethodOID=\"MT.DAYCALC\" Role=\"Timing\"/>\r\n        <ItemRef ItemOID=\"IT.SE.SEENDY\" Mandatory=\"No\" OrderNumber=\"11\" MethodOID=\"MT.DAYCALC\" Role=\"Timing\"/>\r\n        <def:Class Name=\"SPECIAL PURPOSE\"/>\r\n        <def:leaf ID=\"LF.SE\" xlink:href=\"se.xpt\">\r\n          <def:title>se.xpt</def:title>\r\n        </def:leaf>\r\n      </ItemGroupDef>\r\n      <!-- Dataset Definition (SV) -->\r\n      <ItemGroupDef OID=\"IG.SV\" Name=\"SV\" Domain=\"SV\"\r\n        Repeating=\"Yes\" IsReferenceData=\"No\" SASDatasetName=\"SV\"\r\n        def:Structure=\"One record per actual visit per subject\"\r\n        Purpose=\"Tabulation\" def:StandardOID=\"STD.1\"\r\n def:ArchiveLocationID=\"LF.SV\">\r\n        <Description>\r\n          <TranslatedText xml:lang=\"en\">Subject Visits</TranslatedText>\r\n        </Description>\r\n        <ItemRef ItemOID=\"IT.SV.STUDYID\" Mandatory=\"Yes\" OrderNumber=\"1\" KeySequence=\"1\" Role=\"Identifier\"/>\r\n        <ItemRef ItemOID=\"IT.SV.DOMAIN\" Mandatory=\"Yes\" OrderNumber=\"2\" Role=\"Identifier\"/>\r\n        <ItemRef ItemOID=\"IT.SV.USUBJID\" Mandatory=\"Yes\" OrderNumber=\"3\" KeySequence=\"2\" Role=\"Identifier\"/>\r\n        <ItemRef ItemOID=\"IT.SV.VISITNUM\" Mandatory=\"Yes\" OrderNumber=\"4\" KeySequence=\"4\" Role=\"Topic\"/>\r\n        <ItemRef ItemOID=\"IT.SV.VISIT\" Mandatory=\"No\" OrderNumber=\"5\" Role=\"Synonym Qualifier\"/>\r\n        <ItemRef ItemOID=\"IT.SV.SVSTDTC\" Mandatory=\"No\" OrderNumber=\"6\" KeySequence=\"3\" MethodOID=\"MT.SVSTDTC\" Role=\"Timing\"/>\r\n        <ItemRef ItemOID=\"IT.SV.SVENDTC\" Mandatory=\"No\" OrderNumber=\"7\" MethodOID=\"MT.SVENDTC\" Role=\"Timing\"/>\r\n        <ItemRef ItemOID=\"IT.SV.SVSTDY\" Mandatory=\"No\" OrderNumber=\"8\" MethodOID=\"MT.DAYCALC\" Role=\"Timing\"/>\r\n        <ItemRef ItemOID=\"IT.SV.SVENDY\" Mandatory=\"No\" OrderNumber=\"9\" MethodOID=\"MT.DAYCALC\" Role=\"Timing\"/>\r\n        <ItemRef ItemOID=\"IT.SV.SVUPDES\" Mandatory=\"No\" OrderNumber=\"10\" Role=\"Record Qualifier\"/>\r\n        <def:Class Name=\"SPECIAL PURPOSE\"/>\r\n        <def:leaf ID=\"LF.SV\" xlink:href=\"sv.xpt\">\r\n          <def:title>sv.xpt</def:title>\r\n        </def:leaf>\r\n      </ItemGroupDef>\r\n      <!-- Dataset Definition (CM) -->\r\n      <ItemGroupDef OID=\"IG.CM\" Name=\"CM\" Domain=\"CM\"\r\n        Repeating=\"Yes\" IsReferenceData=\"No\" SASDatasetName=\"CM\"\r\n        def:Structure=\"One record per recorded medication occurrence or constant-dosing interval per subject\"\r\n        Purpose=\"Tabulation\" def:StandardOID=\"STD.1\"\r\n def:ArchiveLocationID=\"LF.CM\">\r\n        <Description>\r\n          <TranslatedText xml:lang=\"en\">Concomitant Medications</TranslatedText>\r\n        </Description>\r\n        <ItemRef ItemOID=\"IT.CM.STUDYID\" Mandatory=\"Yes\" OrderNumber=\"1\" KeySequence=\"1\" Role=\"Identifier\"/>\r\n        <ItemRef ItemOID=\"IT.CM.DOMAIN\" Mandatory=\"Yes\" OrderNumber=\"2\" Role=\"Identifier\"/>\r\n        <ItemRef ItemOID=\"IT.CM.USUBJID\" Mandatory=\"Yes\" OrderNumber=\"3\" KeySequence=\"2\" Role=\"Identifier\"/>\r\n        <ItemRef ItemOID=\"IT.CM.CMSEQ\" Mandatory=\"Yes\" OrderNumber=\"4\" MethodOID=\"MT.SEQ\" Role=\"Identifier\"/>\r\n        <ItemRef ItemOID=\"IT.CM.CMTRT\" Mandatory=\"Yes\" OrderNumber=\"5\" KeySequence=\"4\" Role=\"Topic\"/>\r\n        <ItemRef ItemOID=\"IT.CM.CMINDC\" Mandatory=\"No\" OrderNumber=\"6\" Role=\"Record Qualifier\"/>\r\n        <ItemRef ItemOID=\"IT.CM.CMDOSE\" Mandatory=\"No\" OrderNumber=\"7\" Role=\"Record Qualifier\"/>\r\n        <ItemRef ItemOID=\"IT.CM.CMDOSU\" Mandatory=\"No\" OrderNumber=\"8\" Role=\"Variable Qualifier\"/>\r\n        <ItemRef ItemOID=\"IT.CM.CMDOSFRQ\" Mandatory=\"No\" OrderNumber=\"9\" Role=\"Variable Qualifier\"/>\r\n        <ItemRef ItemOID=\"IT.CM.CMROUTE\" Mandatory=\"No\" OrderNumber=\"10\" Role=\"Variable Qualifier\"/>\r\n        <ItemRef ItemOID=\"IT.CM.EPOCH\" Mandatory=\"No\" OrderNumber=\"11\" MethodOID=\"MT.EPOCH\" Role=\"Timing\"/>\r\n        <ItemRef ItemOID=\"IT.CM.CMSTDTC\" Mandatory=\"No\" OrderNumber=\"12\" KeySequence=\"3\" Role=\"Timing\"/>\r\n        <ItemRef ItemOID=\"IT.CM.CMENDTC\" Mandatory=\"No\" OrderNumber=\"13\" Role=\"Timing\"/>\r\n        <ItemRef ItemOID=\"IT.CM.CMSTDY\" Mandatory=\"No\" OrderNumber=\"14\" MethodOID=\"MT.DAYCALC\" Role=\"Timing\"/>\r\n        <ItemRef ItemOID=\"IT.CM.CMENDY\" Mandatory=\"No\" OrderNumber=\"15\" MethodOID=\"MT.DAYCALC\" Role=\"Timing\"/>\r\n        <ItemRef ItemOID=\"IT.CM.CMENRTPT\" Mandatory=\"No\" OrderNumber=\"16\" Role=\"Timing\"/>\r\n        <ItemRef ItemOID=\"IT.CM.CMENTPT\" Mandatory=\"No\" OrderNumber=\"17\" MethodOID=\"MT.CMENTPT\" Role=\"Timing\"/>\r\n        <def:Class Name=\"INTERVENTIONS\"/>\r\n        <def:leaf ID=\"LF.CM\" xlink:href=\"cm.xpt\">\r\n          <def:title>cm.xpt</def:title>\r\n        </def:leaf>\r\n      </ItemGroupDef>\r\n      <!-- Dataset Definition (EC) -->\r\n      <ItemGroupDef OID=\"IG.EC\" Name=\"EC\" Domain=\"EC\"\r\n        Repeating=\"Yes\" IsReferenceData=\"No\" SASDatasetName=\"EC\"\r\n        def:Structure=\"One record per constant-dosing interval per mood per subject\"\r\n        Purpose=\"Tabulation\" def:StandardOID=\"STD.1\"\r\n def:ArchiveLocationID=\"LF.EC\">\r\n        <Description>\r\n          <TranslatedText xml:lang=\"en\">Exposure as Collected</TranslatedText>\r\n        </Description>\r\n        <ItemRef ItemOID=\"IT.EC.STUDYID\" Mandatory=\"Yes\" OrderNumber=\"1\" KeySequence=\"1\" Role=\"Identifier\"/>\r\n        <ItemRef ItemOID=\"IT.EC.DOMAIN\" Mandatory=\"Yes\" OrderNumber=\"2\" Role=\"Identifier\"/>\r\n        <ItemRef ItemOID=\"IT.EC.USUBJID\" Mandatory=\"Yes\" OrderNumber=\"3\" KeySequence=\"2\" Role=\"Identifier\"/>\r\n        <ItemRef ItemOID=\"IT.EC.SPDEVID\" Mandatory=\"Yes\" OrderNumber=\"4\" Role=\"Identifier\"/>\r\n        <ItemRef ItemOID=\"IT.EC.ECSEQ\" Mandatory=\"Yes\" OrderNumber=\"5\" MethodOID=\"MT.SEQ\" Role=\"Identifier\"/>\r\n        <ItemRef ItemOID=\"IT.EC.ECTRT\" Mandatory=\"Yes\" OrderNumber=\"6\" KeySequence=\"3\" Role=\"Topic\"/>\r\n        <ItemRef ItemOID=\"IT.EC.ECPRESP\" Mandatory=\"Yes\" OrderNumber=\"7\" Role=\"Variable Qualifier\"/>\r\n        <ItemRef ItemOID=\"IT.EC.ECOCCUR\" Mandatory=\"Yes\" OrderNumber=\"8\" Role=\"Record Qualifier\"/>\r\n        <ItemRef ItemOID=\"IT.EC.ECDOSE\" Mandatory=\"No\" OrderNumber=\"9\" Role=\"Record Qualifier\"/>\r\n        <ItemRef ItemOID=\"IT.EC.ECDOSU\" Mandatory=\"No\" OrderNumber=\"10\" Role=\"Variable Qualifier\"/>\r\n        <ItemRef ItemOID=\"IT.EC.ECDOSFRM\" Mandatory=\"No\" OrderNumber=\"11\" Role=\"Variable Qualifier\"/>\r\n        <ItemRef ItemOID=\"IT.EC.ECDOSFRQ\" Mandatory=\"No\" OrderNumber=\"12\" Role=\"Variable Qualifier\"/>\r\n        <ItemRef ItemOID=\"IT.EC.ECROUTE\" Mandatory=\"No\" OrderNumber=\"13\" Role=\"Variable Qualifier\"/>\r\n        <ItemRef ItemOID=\"IT.EC.ECLOT\" Mandatory=\"No\" OrderNumber=\"14\" Role=\"Record Qualifier\"/>\r\n        <ItemRef ItemOID=\"IT.EC.ECPSTRG\" Mandatory=\"Yes\" OrderNumber=\"15\" Role=\"Record Qualifier\"/>\r\n        <ItemRef ItemOID=\"IT.EC.ECPSTRGU\" Mandatory=\"Yes\" OrderNumber=\"16\" Role=\"Variable Qualifier\"/>\r\n        <ItemRef ItemOID=\"IT.EC.EPOCH\" Mandatory=\"No\" OrderNumber=\"17\" MethodOID=\"MT.EPOCH\" Role=\"Timing\"/>\r\n        <ItemRef ItemOID=\"IT.EC.ECSTDTC\" Mandatory=\"No\" OrderNumber=\"18\" KeySequence=\"4\" Role=\"Timing\"/>\r\n        <ItemRef ItemOID=\"IT.EC.ECENDTC\" Mandatory=\"No\" OrderNumber=\"19\" Role=\"Timing\"/>\r\n        <ItemRef ItemOID=\"IT.EC.ECSTDY\" Mandatory=\"No\" OrderNumber=\"20\" MethodOID=\"MT.DAYCALC\" Role=\"Timing\"/>\r\n        <ItemRef ItemOID=\"IT.EC.ECENDY\" Mandatory=\"No\" OrderNumber=\"21\" MethodOID=\"MT.DAYCALC\" Role=\"Timing\"/>\r\n        <def:Class Name=\"INTERVENTIONS\"/>\r\n        <def:leaf ID=\"LF.EC\" xlink:href=\"ec.xpt\">\r\n          <def:title>ec.xpt</def:title>\r\n        </def:leaf>\r\n      </ItemGroupDef>\r\n      <!-- Dataset Definition (EX) -->\r\n      <ItemGroupDef OID=\"IG.EX\" Name=\"EX\" Domain=\"EX\"\r\n        Repeating=\"Yes\" IsReferenceData=\"No\" SASDatasetName=\"EX\"\r\n        def:Structure=\"One record per constant dosing interval per subject\"\r\n        Purpose=\"Tabulation\" def:StandardOID=\"STD.1\"\r\n def:ArchiveLocationID=\"LF.EX\">\r\n        <Description>\r\n          <TranslatedText xml:lang=\"en\">Exposure</TranslatedText>\r\n        </Description>\r\n        <ItemRef ItemOID=\"IT.EX.STUDYID\" Mandatory=\"Yes\" OrderNumber=\"1\" KeySequence=\"1\" Role=\"Identifier\"/>\r\n        <ItemRef ItemOID=\"IT.EX.DOMAIN\" Mandatory=\"Yes\" OrderNumber=\"2\" Role=\"Identifier\"/>\r\n        <ItemRef ItemOID=\"IT.EX.USUBJID\" Mandatory=\"Yes\" OrderNumber=\"3\" KeySequence=\"2\" Role=\"Identifier\"/>\r\n        <ItemRef ItemOID=\"IT.EX.SPDEVID\" Mandatory=\"Yes\" OrderNumber=\"4\" Role=\"Identifier\"/>\r\n        <ItemRef ItemOID=\"IT.EX.EXSEQ\" Mandatory=\"Yes\" OrderNumber=\"5\" MethodOID=\"MT.SEQ\" Role=\"Identifier\"/>\r\n        <ItemRef ItemOID=\"IT.EX.EXTRT\" Mandatory=\"Yes\" OrderNumber=\"6\" KeySequence=\"3\" Role=\"Topic\"/>\r\n        <ItemRef ItemOID=\"IT.EX.EXDOSE\" Mandatory=\"No\" OrderNumber=\"7\" MethodOID=\"MT.EXDOSE\" Role=\"Record Qualifier\"/>\r\n        <ItemRef ItemOID=\"IT.EX.EXDOSU\" Mandatory=\"No\" OrderNumber=\"8\" Role=\"Variable Qualifier\"/>\r\n        <ItemRef ItemOID=\"IT.EX.EXDOSFRM\" Mandatory=\"No\" OrderNumber=\"9\" Role=\"Variable Qualifier\"/>\r\n        <ItemRef ItemOID=\"IT.EX.EXDOSFRQ\" Mandatory=\"No\" OrderNumber=\"10\" Role=\"Variable Qualifier\"/>\r\n        <ItemRef ItemOID=\"IT.EX.EXROUTE\" Mandatory=\"No\" OrderNumber=\"11\" Role=\"Variable Qualifier\"/>\r\n        <ItemRef ItemOID=\"IT.EX.EXLOT\" Mandatory=\"No\" OrderNumber=\"12\" Role=\"Record Qualifier\"/>\r\n        <ItemRef ItemOID=\"IT.EX.EPOCH\" Mandatory=\"No\" OrderNumber=\"13\" Role=\"Timing\"/>\r\n        <ItemRef ItemOID=\"IT.EX.EXSTDTC\" Mandatory=\"No\" OrderNumber=\"14\" KeySequence=\"4\" Role=\"Timing\"/>\r\n        <ItemRef ItemOID=\"IT.EX.EXENDTC\" Mandatory=\"No\" OrderNumber=\"15\" Role=\"Timing\"/>\r\n        <ItemRef ItemOID=\"IT.EX.EXSTDY\" Mandatory=\"No\" OrderNumber=\"16\" Role=\"Timing\"/>\r\n        <ItemRef ItemOID=\"IT.EX.EXENDY\" Mandatory=\"No\" OrderNumber=\"17\" Role=\"Timing\"/>\r\n        <def:Class Name=\"INTERVENTIONS\"/>\r\n        <def:leaf ID=\"LF.EX\" xlink:href=\"ex.xpt\">\r\n          <def:title>ex.xpt</def:title>\r\n        </def:leaf>\r\n      </ItemGroupDef>\r\n      <!-- Dataset Definition (AE) -->\r\n      <ItemGroupDef OID=\"IG.AE\" Name=\"AE\" Domain=\"AE\"\r\n        Repeating=\"Yes\" IsReferenceData=\"No\" SASDatasetName=\"AE\"\r\n        def:Structure=\"One record per adverse event per subject\"\r\n        Purpose=\"Tabulation\" def:StandardOID=\"STD.1\"\r\n def:ArchiveLocationID=\"LF.AE\">\r\n        <Description>\r\n          <TranslatedText xml:lang=\"en\">Adverse Events</TranslatedText>\r\n        </Description>\r\n        <ItemRef ItemOID=\"IT.AE.STUDYID\" Mandatory=\"Yes\" OrderNumber=\"1\" KeySequence=\"1\" Role=\"Identifier\"/>\r\n        <ItemRef ItemOID=\"IT.AE.DOMAIN\" Mandatory=\"Yes\" OrderNumber=\"2\" Role=\"Identifier\"/>\r\n        <ItemRef ItemOID=\"IT.AE.USUBJID\" Mandatory=\"Yes\" OrderNumber=\"3\" KeySequence=\"2\" Role=\"Identifier\"/>\r\n        <ItemRef ItemOID=\"IT.AE.AESEQ\" Mandatory=\"Yes\" OrderNumber=\"4\" MethodOID=\"MT.SEQ\" Role=\"Identifier\"/>\r\n        <ItemRef ItemOID=\"IT.AE.AELNKID\" Mandatory=\"No\" OrderNumber=\"5\" KeySequence=\"5\" Role=\"Identifier\"/>\r\n        <ItemRef ItemOID=\"IT.AE.AETERM\" Mandatory=\"Yes\" OrderNumber=\"6\" Role=\"Topic\"/>\r\n        <ItemRef ItemOID=\"IT.AE.AELLT\" Mandatory=\"No\" OrderNumber=\"7\" Role=\"Variable Qualifier\" def:HasNoData=\"Yes\"/>\r\n        <ItemRef ItemOID=\"IT.AE.AELLTCD\" Mandatory=\"No\" OrderNumber=\"8\" Role=\"Variable Qualifier\" def:HasNoData=\"Yes\"/>\r\n        <ItemRef ItemOID=\"IT.AE.AEDECOD\" Mandatory=\"Yes\" OrderNumber=\"9\" KeySequence=\"3\" Role=\"Synonym Qualifier\" def:HasNoData=\"Yes\"/>\r\n        <ItemRef ItemOID=\"IT.AE.AEPTCD\" Mandatory=\"No\" OrderNumber=\"10\" Role=\"Variable Qualifier\" def:HasNoData=\"Yes\"/>\r\n        <ItemRef ItemOID=\"IT.AE.AEHLT\" Mandatory=\"No\" OrderNumber=\"11\" Role=\"Variable Qualifier\" def:HasNoData=\"Yes\"/>\r\n        <ItemRef ItemOID=\"IT.AE.AEHLTCD\" Mandatory=\"No\" OrderNumber=\"12\" Role=\"Variable Qualifier\" def:HasNoData=\"Yes\"/>\r\n        <ItemRef ItemOID=\"IT.AE.AEHLGT\" Mandatory=\"No\" OrderNumber=\"13\" Role=\"Variable Qualifier\" def:HasNoData=\"Yes\"/>\r\n        <ItemRef ItemOID=\"IT.AE.AEHLGTCD\" Mandatory=\"No\" OrderNumber=\"14\" Role=\"Variable Qualifier\" def:HasNoData=\"Yes\"/>\r\n        <ItemRef ItemOID=\"IT.AE.AEBODSYS\" Mandatory=\"No\" OrderNumber=\"15\" Role=\"Record Qualifier\" def:HasNoData=\"Yes\"/>\r\n        <ItemRef ItemOID=\"IT.AE.AEBDSYCD\" Mandatory=\"No\" OrderNumber=\"16\" Role=\"Variable Qualifier\" def:HasNoData=\"Yes\"/>\r\n        <ItemRef ItemOID=\"IT.AE.AESOC\" Mandatory=\"No\" OrderNumber=\"17\" Role=\"Variable Qualifier\" def:HasNoData=\"Yes\"/>\r\n        <ItemRef ItemOID=\"IT.AE.AESOCCD\" Mandatory=\"No\" OrderNumber=\"18\" Role=\"Variable Qualifier\" def:HasNoData=\"Yes\"/>\r\n        <ItemRef ItemOID=\"IT.AE.AESEV\" Mandatory=\"No\" OrderNumber=\"19\" Role=\"Record Qualifier\"/>\r\n        <ItemRef ItemOID=\"IT.AE.AESER\" Mandatory=\"No\" OrderNumber=\"20\" Role=\"Record Qualifier\"/>\r\n        <ItemRef ItemOID=\"IT.AE.AEACN\" Mandatory=\"No\" OrderNumber=\"21\" Role=\"Record Qualifier\"/>\r\n        <ItemRef ItemOID=\"IT.AE.AEREL\" Mandatory=\"No\" OrderNumber=\"22\" Role=\"Record Qualifier\"/>\r\n        <ItemRef ItemOID=\"IT.AE.AEOUT\" Mandatory=\"No\" OrderNumber=\"23\" Role=\"Record Qualifier\"/>\r\n        <ItemRef ItemOID=\"IT.AE.AESCAN\" Mandatory=\"No\" OrderNumber=\"24\" Role=\"Record Qualifier\"/>\r\n        <ItemRef ItemOID=\"IT.AE.AESCONG\" Mandatory=\"No\" OrderNumber=\"25\" Role=\"Record Qualifier\"/>\r\n        <ItemRef ItemOID=\"IT.AE.AESDISAB\" Mandatory=\"No\" OrderNumber=\"26\" Role=\"Record Qualifier\"/>\r\n        <ItemRef ItemOID=\"IT.AE.AESDTH\" Mandatory=\"No\" OrderNumber=\"27\" Role=\"Record Qualifier\"/>\r\n        <ItemRef ItemOID=\"IT.AE.AESHOSP\" Mandatory=\"No\" OrderNumber=\"28\" Role=\"Record Qualifier\"/>\r\n        <ItemRef ItemOID=\"IT.AE.AESLIFE\" Mandatory=\"No\" OrderNumber=\"29\" Role=\"Record Qualifier\"/>\r\n        <ItemRef ItemOID=\"IT.AE.AESOD\" Mandatory=\"No\" OrderNumber=\"30\" Role=\"Record Qualifier\"/>\r\n        <ItemRef ItemOID=\"IT.AE.EPOCH\" Mandatory=\"No\" OrderNumber=\"31\" MethodOID=\"MT.EPOCH\" Role=\"Timing\"/>\r\n        <ItemRef ItemOID=\"IT.AE.AESTDTC\" Mandatory=\"No\" OrderNumber=\"32\" KeySequence=\"4\" Role=\"Timing\"/>\r\n        <ItemRef ItemOID=\"IT.AE.AEENDTC\" Mandatory=\"No\" OrderNumber=\"33\" Role=\"Timing\"/>\r\n        <ItemRef ItemOID=\"IT.AE.AESTDY\" Mandatory=\"No\" OrderNumber=\"34\" MethodOID=\"MT.DAYCALC\" Role=\"Timing\"/>\r\n        <ItemRef ItemOID=\"IT.AE.AEENDY\" Mandatory=\"No\" OrderNumber=\"35\" MethodOID=\"MT.DAYCALC\" Role=\"Timing\"/>\r\n        <ItemRef ItemOID=\"IT.AE.AEENRTPT\" Mandatory=\"No\" OrderNumber=\"36\" Role=\"Timing\"/>\r\n        <ItemRef ItemOID=\"IT.AE.AEENTPT\" Mandatory=\"No\" OrderNumber=\"37\" MethodOID=\"MT.AEENTPT\" Role=\"Timing\"/>\r\n        <def:Class Name=\"EVENTS\"/>\r\n        <def:leaf ID=\"LF.AE\" xlink:href=\"ae.xpt\">\r\n          <def:title>ae.xpt</def:title>\r\n        </def:leaf>\r\n      </ItemGroupDef>\r\n      <!-- Dataset Definition (DS) -->\r\n      <ItemGroupDef OID=\"IG.DS\" Name=\"DS\" Domain=\"DS\"\r\n        Repeating=\"Yes\" IsReferenceData=\"No\" SASDatasetName=\"DS\"\r\n        def:Structure=\"One record per disposition status or protocol milestone per subject\"\r\n        Purpose=\"Tabulation\" def:StandardOID=\"STD.1\"\r\n def:ArchiveLocationID=\"LF.DS\">\r\n        <Description>\r\n          <TranslatedText xml:lang=\"en\">Disposition</TranslatedText>\r\n        </Description>\r\n        <ItemRef ItemOID=\"IT.DS.STUDYID\" Mandatory=\"Yes\" OrderNumber=\"1\" KeySequence=\"1\" Role=\"Identifier\"/>\r\n        <ItemRef ItemOID=\"IT.DS.DOMAIN\" Mandatory=\"Yes\" OrderNumber=\"2\" Role=\"Identifier\"/>\r\n        <ItemRef ItemOID=\"IT.DS.USUBJID\" Mandatory=\"Yes\" OrderNumber=\"3\" KeySequence=\"2\" Role=\"Identifier\"/>\r\n        <ItemRef ItemOID=\"IT.DS.DSSEQ\" Mandatory=\"Yes\" OrderNumber=\"4\" MethodOID=\"MT.SEQ\" Role=\"Identifier\"/>\r\n        <ItemRef ItemOID=\"IT.DS.DSLNKID\" Mandatory=\"No\" OrderNumber=\"5\" Role=\"Identifier\"/>\r\n        <ItemRef ItemOID=\"IT.DS.DSTERM\" Mandatory=\"Yes\" OrderNumber=\"6\" Role=\"Topic\"/>\r\n        <ItemRef ItemOID=\"IT.DS.DSDECOD\" Mandatory=\"Yes\" OrderNumber=\"7\" KeySequence=\"6\" Role=\"Synonym Qualifier\"/>\r\n        <ItemRef ItemOID=\"IT.DS.DSCAT\" Mandatory=\"No\" OrderNumber=\"8\" KeySequence=\"4\" Role=\"Grouping Qualifier\"/>\r\n        <ItemRef ItemOID=\"IT.DS.DSSCAT\" Mandatory=\"No\" OrderNumber=\"9\" KeySequence=\"5\" Role=\"Grouping Qualifier\"/>\r\n        <ItemRef ItemOID=\"IT.DS.EPOCH\" Mandatory=\"No\" OrderNumber=\"10\" MethodOID=\"MT.EPOCH\" Role=\"Timing\"/>\r\n        <ItemRef ItemOID=\"IT.DS.DSSTDTC\" Mandatory=\"No\" OrderNumber=\"11\" KeySequence=\"3\" Role=\"Timing\"/>\r\n        <ItemRef ItemOID=\"IT.DS.DSSTDY\" Mandatory=\"No\" OrderNumber=\"12\" MethodOID=\"MT.DAYCALC\" Role=\"Timing\"/>\r\n        <def:Class Name=\"EVENTS\"/>\r\n        <def:leaf ID=\"LF.DS\" xlink:href=\"ds.xpt\">\r\n          <def:title>ds.xpt</def:title>\r\n        </def:leaf>\r\n      </ItemGroupDef>\r\n      <!-- Dataset Definition (MH) -->\r\n      <ItemGroupDef OID=\"IG.MH\" Name=\"MH\" Domain=\"MH\"\r\n        Repeating=\"Yes\" IsReferenceData=\"No\" SASDatasetName=\"MH\"\r\n        def:Structure=\"One record per medical history event per subject\"\r\n        Purpose=\"Tabulation\" def:StandardOID=\"STD.1\"\r\n def:ArchiveLocationID=\"LF.MH\">\r\n        <Description>\r\n          <TranslatedText xml:lang=\"en\">Medical History</TranslatedText>\r\n        </Description>\r\n        <ItemRef ItemOID=\"IT.MH.STUDYID\" Mandatory=\"Yes\" OrderNumber=\"1\" KeySequence=\"1\" Role=\"Identifier\"/>\r\n        <ItemRef ItemOID=\"IT.MH.DOMAIN\" Mandatory=\"Yes\" OrderNumber=\"2\" Role=\"Identifier\"/>\r\n        <ItemRef ItemOID=\"IT.MH.USUBJID\" Mandatory=\"Yes\" OrderNumber=\"3\" KeySequence=\"2\" Role=\"Identifier\"/>\r\n        <ItemRef ItemOID=\"IT.MH.MHSEQ\" Mandatory=\"Yes\" OrderNumber=\"4\" MethodOID=\"MT.SEQ\" Role=\"Identifier\"/>\r\n        <ItemRef ItemOID=\"IT.MH.MHTERM\" Mandatory=\"Yes\" OrderNumber=\"5\" KeySequence=\"3\" Role=\"Topic\"/>\r\n        <ItemRef ItemOID=\"IT.MH.MHEVDTYP\" Mandatory=\"No\" OrderNumber=\"6\" Role=\"Variable Qualifier\"/>\r\n        <ItemRef ItemOID=\"IT.MH.MHSTDTC\" Mandatory=\"No\" OrderNumber=\"7\" KeySequence=\"4\" Role=\"Timing\"/>\r\n        <ItemRef ItemOID=\"IT.MH.MHSTDY\" Mandatory=\"No\" OrderNumber=\"8\" MethodOID=\"MT.DAYCALC\" Role=\"Timing\"/>\r\n        <def:Class Name=\"EVENTS\"/>\r\n        <def:leaf ID=\"LF.MH\" xlink:href=\"mh.xpt\">\r\n          <def:title>mh.xpt</def:title>\r\n        </def:leaf>\r\n      </ItemGroupDef>\r\n      <!-- Dataset Definition (XD) -->\r\n      <ItemGroupDef OID=\"IG.XD\" Name=\"XD\" Domain=\"XD\"\r\n        Repeating=\"Yes\" IsReferenceData=\"No\" SASDatasetName=\"XD\"\r\n        def:Structure=\"One record per death detail per subject\"\r\n        Purpose=\"Tabulation\" def:StandardOID=\"STD.1\"\r\n def:ArchiveLocationID=\"LF.XD\">\r\n        <Description>\r\n          <TranslatedText xml:lang=\"en\">Death Details</TranslatedText>\r\n        </Description>\r\n        <ItemRef ItemOID=\"IT.XD.STUDYID\" Mandatory=\"Yes\" OrderNumber=\"1\" KeySequence=\"1\" Role=\"Identifier\"/>\r\n        <ItemRef ItemOID=\"IT.XD.DOMAIN\" Mandatory=\"Yes\" OrderNumber=\"2\" Role=\"Identifier\"/>\r\n        <ItemRef ItemOID=\"IT.XD.USUBJID\" Mandatory=\"Yes\" OrderNumber=\"3\" KeySequence=\"2\" Role=\"Identifier\"/>\r\n        <ItemRef ItemOID=\"IT.XD.XDSEQ\" Mandatory=\"Yes\" OrderNumber=\"4\" MethodOID=\"MT.SEQ\" Role=\"Identifier\"/>\r\n        <ItemRef ItemOID=\"IT.XD.XDLNKID\" Mandatory=\"No\" OrderNumber=\"5\" Role=\"Identifier\"/>\r\n        <ItemRef ItemOID=\"IT.XD.XDTESTCD\" Mandatory=\"Yes\" OrderNumber=\"6\" KeySequence=\"3\" Role=\"Topic\"/>\r\n        <ItemRef ItemOID=\"IT.XD.XDTEST\" Mandatory=\"Yes\" OrderNumber=\"7\" Role=\"Synonym Qualifier\"/>\r\n        <ItemRef ItemOID=\"IT.XD.XDORRES\" Mandatory=\"No\" OrderNumber=\"8\" Role=\"Result Qualifier\"/>\r\n        <ItemRef ItemOID=\"IT.XD.XDSTRESC\" Mandatory=\"No\" OrderNumber=\"9\" Role=\"Result Qualifier\"/>\r\n        <ItemRef ItemOID=\"IT.XD.EPOCH\" Mandatory=\"No\" OrderNumber=\"10\" MethodOID=\"MT.EPOCH\" Role=\"Timing\"/>\r\n        <ItemRef ItemOID=\"IT.XD.XDDTC\" Mandatory=\"No\" OrderNumber=\"11\" Role=\"Timing\"/>\r\n        <ItemRef ItemOID=\"IT.XD.XDDY\" Mandatory=\"No\" OrderNumber=\"12\" MethodOID=\"MT.DAYCALC\" Role=\"Timing\"/>\r\n        <def:Class Name=\"FINDINGS\"/>\r\n        <def:leaf ID=\"LF.XD\" xlink:href=\"xd.xpt\">\r\n          <def:title>xd.xpt</def:title>\r\n        </def:leaf>\r\n      </ItemGroupDef>\r\n      <!-- Dataset Definition (FT) -->\r\n      <ItemGroupDef OID=\"IG.FT\" Name=\"FT\" Domain=\"FT\"\r\n        Repeating=\"Yes\" IsReferenceData=\"No\" SASDatasetName=\"FT\"\r\n        def:Structure=\"One record per functional test finding per timepoint per visit per subject\"\r\n        Purpose=\"Tabulation\" def:StandardOID=\"STD.1\"\r\n def:ArchiveLocationID=\"LF.FT\">\r\n        <Description>\r\n          <TranslatedText xml:lang=\"en\">Functional Tests</TranslatedText>\r\n        </Description>\r\n        <ItemRef ItemOID=\"IT.FT.STUDYID\" Mandatory=\"Yes\" OrderNumber=\"1\" KeySequence=\"1\" Role=\"Identifier\"/>\r\n        <ItemRef ItemOID=\"IT.FT.DOMAIN\" Mandatory=\"Yes\" OrderNumber=\"2\" Role=\"Identifier\"/>\r\n        <ItemRef ItemOID=\"IT.FT.USUBJID\" Mandatory=\"Yes\" OrderNumber=\"3\" KeySequence=\"2\" Role=\"Identifier\"/>\r\n        <ItemRef ItemOID=\"IT.FT.FTSEQ\" Mandatory=\"Yes\" OrderNumber=\"4\" MethodOID=\"MT.SEQ\" Role=\"Identifier\"/>\r\n        <ItemRef ItemOID=\"IT.FT.FTTESTCD\" Mandatory=\"Yes\" OrderNumber=\"5\" KeySequence=\"3\" Role=\"Topic\"/>\r\n        <ItemRef ItemOID=\"IT.FT.FTTEST\" Mandatory=\"Yes\" OrderNumber=\"6\" Role=\"Synonym Qualifier\"/>\r\n        <ItemRef ItemOID=\"IT.FT.FTCAT\" Mandatory=\"Yes\" OrderNumber=\"7\" Role=\"Grouping Qualifier\"/>\r\n        <ItemRef ItemOID=\"IT.FT.FTSCAT\" Mandatory=\"Yes\" OrderNumber=\"8\" Role=\"Grouping Qualifier\"/>\r\n        <ItemRef ItemOID=\"IT.FT.FTORRES\" Mandatory=\"No\" OrderNumber=\"9\" Role=\"Result Qualifier\"/>\r\n        <ItemRef ItemOID=\"IT.FT.FTSTRESC\" Mandatory=\"No\" OrderNumber=\"10\" Role=\"Result Qualifier\"/>\r\n        <ItemRef ItemOID=\"IT.FT.FTSTRESN\" Mandatory=\"No\" OrderNumber=\"11\" MethodOID=\"MT.FTSTRESN\" Role=\"Result Qualifier\"/>\r\n        <ItemRef ItemOID=\"IT.FT.FTLOBXFL\" Mandatory=\"No\" OrderNumber=\"12\" MethodOID=\"MT.LOBXFL\" Role=\"Record Qualifier\"/>\r\n        <ItemRef ItemOID=\"IT.FT.FTREPNUM\" Mandatory=\"No\" OrderNumber=\"13\" KeySequence=\"4\" Role=\"Record Qualifier\"/>\r\n        <ItemRef ItemOID=\"IT.FT.VISITNUM\" Mandatory=\"No\" OrderNumber=\"14\" KeySequence=\"5\" Role=\"Timing\"/>\r\n        <ItemRef ItemOID=\"IT.FT.VISIT\" Mandatory=\"No\" OrderNumber=\"15\" Role=\"Timing\"/>\r\n        <ItemRef ItemOID=\"IT.FT.EPOCH\" Mandatory=\"No\" OrderNumber=\"16\" MethodOID=\"MT.EPOCH\" Role=\"Timing\"/>\r\n        <ItemRef ItemOID=\"IT.FT.FTDTC\" Mandatory=\"No\" OrderNumber=\"17\" Role=\"Timing\"/>\r\n        <ItemRef ItemOID=\"IT.FT.FTDY\" Mandatory=\"No\" OrderNumber=\"18\" MethodOID=\"MT.DAYCALC\" Role=\"Timing\"/>\r\n        <ItemRef ItemOID=\"IT.FT.FTTPT\" Mandatory=\"No\" OrderNumber=\"19\" Role=\"Timing\"/>\r\n        <ItemRef ItemOID=\"IT.FT.FTTPTNUM\" Mandatory=\"No\" OrderNumber=\"20\" Role=\"Timing\"/>\r\n        <ItemRef ItemOID=\"IT.FT.FTELTM\" Mandatory=\"No\" OrderNumber=\"21\" Role=\"Timing\"/>\r\n        <ItemRef ItemOID=\"IT.FT.FTTPTREF\" Mandatory=\"No\" OrderNumber=\"22\" Role=\"Timing\"/>\r\n        <def:Class Name=\"FINDINGS\"/>\r\n        <def:leaf ID=\"LF.FT\" xlink:href=\"ft.xpt\">\r\n          <def:title>ft.xpt</def:title>\r\n        </def:leaf>\r\n      </ItemGroupDef>\r\n      <!-- Dataset Definition (IE) -->\r\n      <ItemGroupDef OID=\"IG.IE\" Name=\"IE\" Domain=\"IE\"\r\n        Repeating=\"Yes\" IsReferenceData=\"No\" SASDatasetName=\"IE\"\r\n        def:Structure=\"One record per inclusion/exclusion criterion not met per subject\"\r\n        Purpose=\"Tabulation\" def:StandardOID=\"STD.1\"\r\n def:ArchiveLocationID=\"LF.IE\">\r\n        <Description>\r\n          <TranslatedText xml:lang=\"en\">Inclusion/Exclusion Criteria Not Met</TranslatedText>\r\n        </Description>\r\n        <ItemRef ItemOID=\"IT.IE.STUDYID\" Mandatory=\"Yes\" OrderNumber=\"1\" KeySequence=\"1\" Role=\"Identifier\"/>\r\n        <ItemRef ItemOID=\"IT.IE.DOMAIN\" Mandatory=\"Yes\" OrderNumber=\"2\" Role=\"Identifier\"/>\r\n        <ItemRef ItemOID=\"IT.IE.USUBJID\" Mandatory=\"Yes\" OrderNumber=\"3\" KeySequence=\"2\" Role=\"Identifier\"/>\r\n        <ItemRef ItemOID=\"IT.IE.IESEQ\" Mandatory=\"Yes\" OrderNumber=\"4\" MethodOID=\"MT.SEQ\" Role=\"Identifier\"/>\r\n        <ItemRef ItemOID=\"IT.IE.IETESTCD\" Mandatory=\"Yes\" OrderNumber=\"5\" KeySequence=\"3\" Role=\"Topic\"/>\r\n        <ItemRef ItemOID=\"IT.IE.IETEST\" Mandatory=\"Yes\" OrderNumber=\"6\" Role=\"Synonym Qualifier\"/>\r\n        <ItemRef ItemOID=\"IT.IE.IECAT\" Mandatory=\"Yes\" OrderNumber=\"7\" Role=\"Grouping Qualifier\"/>\r\n        <ItemRef ItemOID=\"IT.IE.IEORRES\" Mandatory=\"Yes\" OrderNumber=\"8\" MethodOID=\"MT.IEORRES\" Role=\"Result Qualifier\"/>\r\n        <ItemRef ItemOID=\"IT.IE.IESTRESC\" Mandatory=\"Yes\" OrderNumber=\"9\" Role=\"Result Qualifier\"/>\r\n        <ItemRef ItemOID=\"IT.IE.EPOCH\" Mandatory=\"No\" OrderNumber=\"10\" MethodOID=\"MT.EPOCH\" Role=\"Timing\"/>\r\n        <ItemRef ItemOID=\"IT.IE.IEDTC\" Mandatory=\"No\" OrderNumber=\"11\" Role=\"Timing\"/>\r\n        <ItemRef ItemOID=\"IT.IE.IEDY\" Mandatory=\"No\" OrderNumber=\"12\" MethodOID=\"MT.DAYCALC\" Role=\"Timing\"/>\r\n        <def:Class Name=\"FINDINGS\"/>\r\n        <def:leaf ID=\"LF.IE\" xlink:href=\"ie.xpt\">\r\n          <def:title>ie.xpt</def:title>\r\n        </def:leaf>\r\n      </ItemGroupDef>\r\n      <!-- Dataset Definition (LB) -->\r\n      <ItemGroupDef OID=\"IG.LB\" Name=\"LB\" Domain=\"LB\"\r\n        Repeating=\"Yes\" IsReferenceData=\"No\" SASDatasetName=\"LB\"\r\n        def:Structure=\"One record per analyte per visit per subject\"\r\n        Purpose=\"Tabulation\" def:StandardOID=\"STD.1\"\r\n def:ArchiveLocationID=\"LF.LB\">\r\n        <Description>\r\n          <TranslatedText xml:lang=\"en\">Laboratory Test Results</TranslatedText>\r\n        </Description>\r\n        <ItemRef ItemOID=\"IT.LB.STUDYID\" Mandatory=\"Yes\" OrderNumber=\"1\" KeySequence=\"1\" Role=\"Identifier\"/>\r\n        <ItemRef ItemOID=\"IT.LB.DOMAIN\" Mandatory=\"Yes\" OrderNumber=\"2\" Role=\"Identifier\"/>\r\n        <ItemRef ItemOID=\"IT.LB.USUBJID\" Mandatory=\"Yes\" OrderNumber=\"3\" KeySequence=\"2\" Role=\"Identifier\"/>\r\n        <ItemRef ItemOID=\"IT.LB.LBSEQ\" Mandatory=\"Yes\" OrderNumber=\"4\" MethodOID=\"MT.SEQ\" Role=\"Identifier\"/>\r\n        <ItemRef ItemOID=\"IT.LB.LBTESTCD\" Mandatory=\"Yes\" OrderNumber=\"5\" KeySequence=\"4\" Role=\"Topic\"/>\r\n        <ItemRef ItemOID=\"IT.LB.LBTEST\" Mandatory=\"Yes\" OrderNumber=\"6\" Role=\"Synonym Qualifier\"/>\r\n        <ItemRef ItemOID=\"IT.LB.LBCAT\" Mandatory=\"No\" OrderNumber=\"7\" KeySequence=\"3\" Role=\"Grouping Qualifier\"/>\r\n        <ItemRef ItemOID=\"IT.LB.LBORRES\" Mandatory=\"No\" OrderNumber=\"8\" Role=\"Result Qualifier\"/>\r\n        <ItemRef ItemOID=\"IT.LB.LBORRESU\" Mandatory=\"No\" OrderNumber=\"9\" Role=\"Variable Qualifier\"/>\r\n        <ItemRef ItemOID=\"IT.LB.LBORNRLO\" Mandatory=\"No\" OrderNumber=\"10\" Role=\"Variable Qualifier\"/>\r\n        <ItemRef ItemOID=\"IT.LB.LBORNRHI\" Mandatory=\"No\" OrderNumber=\"11\" Role=\"Variable Qualifier\"/>\r\n        <ItemRef ItemOID=\"IT.LB.LBSTRESC\" Mandatory=\"No\" OrderNumber=\"12\" MethodOID=\"MT.LBSTRESC\" Role=\"Result Qualifier\"/>\r\n        <ItemRef ItemOID=\"IT.LB.LBSTRESN\" Mandatory=\"No\" OrderNumber=\"13\" MethodOID=\"MT.STRESN\" Role=\"Result Qualifier\"/>\r\n        <ItemRef ItemOID=\"IT.LB.LBSTRESU\" Mandatory=\"No\" OrderNumber=\"14\" Role=\"Variable Qualifier\"/>\r\n        <ItemRef ItemOID=\"IT.LB.LBSTNRLO\" Mandatory=\"No\" OrderNumber=\"15\" Role=\"Variable Qualifier\"/>\r\n        <ItemRef ItemOID=\"IT.LB.LBSTNRHI\" Mandatory=\"No\" OrderNumber=\"16\" Role=\"Variable Qualifier\"/>\r\n        <ItemRef ItemOID=\"IT.LB.LBNRIND\" Mandatory=\"No\" OrderNumber=\"17\" Role=\"Variable Qualifier\"/>\r\n        <ItemRef ItemOID=\"IT.LB.LBLOBXFL\" Mandatory=\"No\" OrderNumber=\"18\" MethodOID=\"MT.LOBXFL\" Role=\"Record Qualifier\"/>\r\n        <ItemRef ItemOID=\"IT.LB.VISITNUM\" Mandatory=\"No\" OrderNumber=\"19\" KeySequence=\"6\" Role=\"Timing\"/>\r\n        <ItemRef ItemOID=\"IT.LB.VISIT\" Mandatory=\"No\" OrderNumber=\"20\" Role=\"Timing\"/>\r\n        <ItemRef ItemOID=\"IT.LB.EPOCH\" Mandatory=\"No\" OrderNumber=\"21\" MethodOID=\"MT.EPOCH\" Role=\"Timing\"/>\r\n        <ItemRef ItemOID=\"IT.LB.LBDTC\" Mandatory=\"No\" OrderNumber=\"22\" KeySequence=\"5\" Role=\"Timing\"/>\r\n        <ItemRef ItemOID=\"IT.LB.LBDY\" Mandatory=\"No\" OrderNumber=\"23\" MethodOID=\"MT.DAYCALC\" Role=\"Timing\"/>\r\n        <def:Class Name=\"FINDINGS\"/>\r\n        <def:leaf ID=\"LF.LB\" xlink:href=\"lb.xpt\">\r\n          <def:title>lb.xpt</def:title>\r\n        </def:leaf>\r\n      </ItemGroupDef>\r\n      <!-- Dataset Definition (NV) -->\r\n      <ItemGroupDef OID=\"IG.NV\" Name=\"NV\" Domain=\"NV\"\r\n        Repeating=\"Yes\" IsReferenceData=\"No\" SASDatasetName=\"NV\"\r\n        def:Structure=\"One record per finding per visit per subject\"\r\n        Purpose=\"Tabulation\" def:StandardOID=\"STD.1\"\r\n        def:HasNoData=\"Yes\" def:CommentOID=\"COM.NV1\">\r\n        <Description>\r\n          <TranslatedText xml:lang=\"en\">Nervous System Findings</TranslatedText>\r\n        </Description>\r\n        <ItemRef ItemOID=\"IT.NV.STUDYID\" Mandatory=\"Yes\" OrderNumber=\"1\" KeySequence=\"1\" Role=\"Identifier\"/>\r\n        <ItemRef ItemOID=\"IT.NV.DOMAIN\" Mandatory=\"Yes\" OrderNumber=\"2\" Role=\"Identifier\"/>\r\n        <ItemRef ItemOID=\"IT.NV.USUBJID\" Mandatory=\"Yes\" OrderNumber=\"3\" KeySequence=\"2\" Role=\"Identifier\"/>\r\n        <ItemRef ItemOID=\"IT.NV.NVSEQ\" Mandatory=\"Yes\" OrderNumber=\"4\" MethodOID=\"MT.SEQ\" Role=\"Identifier\"/>\r\n        <ItemRef ItemOID=\"IT.NV.NVTESTCD\" Mandatory=\"Yes\" OrderNumber=\"5\" KeySequence=\"3\" Role=\"Topic\"/>\r\n        <ItemRef ItemOID=\"IT.NV.NVTEST\" Mandatory=\"Yes\" OrderNumber=\"6\" Role=\"Synonym Qualifier\"/>\r\n        <ItemRef ItemOID=\"IT.NV.NVORRES\" Mandatory=\"No\" OrderNumber=\"7\" Role=\"Result Qualifier\"/>\r\n        <ItemRef ItemOID=\"IT.NV.NVSTRESC\" Mandatory=\"No\" OrderNumber=\"8\" Role=\"Result Qualifier\"/>\r\n        <ItemRef ItemOID=\"IT.NV.VISITNUM\" Mandatory=\"No\" OrderNumber=\"9\" KeySequence=\"4\" Role=\"Timing\"/>\r\n        <ItemRef ItemOID=\"IT.NV.EPOCH\" Mandatory=\"No\" OrderNumber=\"10\" MethodOID=\"MT.EPOCH\" Role=\"Timing\"/>\r\n        <ItemRef ItemOID=\"IT.NV.NVDTC\" Mandatory=\"No\" OrderNumber=\"11\" Role=\"Timing\"/>\r\n        <ItemRef ItemOID=\"IT.NV.NVDY\" Mandatory=\"No\" OrderNumber=\"12\" MethodOID=\"MT.DAYCALC\" Role=\"Timing\"/>\r\n        <def:Class Name=\"FINDINGS\"/>\r\n      </ItemGroupDef>\r\n      <!-- Dataset Definition (OE) -->\r\n      <ItemGroupDef OID=\"IG.OE\" Name=\"OE\" Domain=\"OE\"\r\n        Repeating=\"Yes\" IsReferenceData=\"No\" SASDatasetName=\"OE\"\r\n        def:Structure=\"One record per ophthalmic finding per visit per subject\"\r\n        Purpose=\"Tabulation\" def:StandardOID=\"STD.1\"\r\n def:ArchiveLocationID=\"LF.OE\">\r\n        <Description>\r\n          <TranslatedText xml:lang=\"en\">Ophthalmic Examinations</TranslatedText>\r\n        </Description>\r\n        <ItemRef ItemOID=\"IT.OE.STUDYID\" Mandatory=\"Yes\" OrderNumber=\"1\" KeySequence=\"1\" Role=\"Identifier\"/>\r\n        <ItemRef ItemOID=\"IT.OE.DOMAIN\" Mandatory=\"Yes\" OrderNumber=\"2\" Role=\"Identifier\"/>\r\n        <ItemRef ItemOID=\"IT.OE.USUBJID\" Mandatory=\"Yes\" OrderNumber=\"3\" KeySequence=\"2\" Role=\"Identifier\"/>\r\n        <ItemRef ItemOID=\"IT.OE.FOCID\" Mandatory=\"No\" OrderNumber=\"4\" Role=\"Identifier\"/>\r\n        <ItemRef ItemOID=\"IT.OE.OESEQ\" Mandatory=\"Yes\" OrderNumber=\"5\" MethodOID=\"MT.SEQ\" Role=\"Identifier\"/>\r\n        <ItemRef ItemOID=\"IT.OE.OETESTCD\" Mandatory=\"Yes\" OrderNumber=\"6\" KeySequence=\"3\" Role=\"Topic\"/>\r\n        <ItemRef ItemOID=\"IT.OE.OETEST\" Mandatory=\"Yes\" OrderNumber=\"7\" Role=\"Synonym Qualifier\"/>\r\n        <ItemRef ItemOID=\"IT.OE.OEORRES\" Mandatory=\"No\" OrderNumber=\"8\" Role=\"Result Qualifier\"/>\r\n        <ItemRef ItemOID=\"IT.OE.OESTRESC\" Mandatory=\"No\" OrderNumber=\"9\" Role=\"Result Qualifier\"/>\r\n        <ItemRef ItemOID=\"IT.OE.OELOC\" Mandatory=\"No\" OrderNumber=\"10\" KeySequence=\"4\" Role=\"Record Qualifier\"/>\r\n        <ItemRef ItemOID=\"IT.OE.OELAT\" Mandatory=\"No\" OrderNumber=\"11\" KeySequence=\"5\" Role=\"Variable Qualifier\"/>\r\n        <ItemRef ItemOID=\"IT.OE.OEMETHOD\" Mandatory=\"No\" OrderNumber=\"12\" Role=\"Record Qualifier\"/>\r\n        <ItemRef ItemOID=\"IT.OE.OELOBXFL\" Mandatory=\"No\" OrderNumber=\"13\" MethodOID=\"MT.LOBXFL\" Role=\"Record Qualifier\"/>\r\n        <ItemRef ItemOID=\"IT.OE.VISITNUM\" Mandatory=\"No\" OrderNumber=\"14\" KeySequence=\"6\" Role=\"Timing\"/>\r\n        <ItemRef ItemOID=\"IT.OE.VISIT\" Mandatory=\"No\" OrderNumber=\"15\" Role=\"Timing\"/>\r\n        <ItemRef ItemOID=\"IT.OE.EPOCH\" Mandatory=\"No\" OrderNumber=\"16\" MethodOID=\"MT.EPOCH\" Role=\"Timing\"/>\r\n        <ItemRef ItemOID=\"IT.OE.OEDTC\" Mandatory=\"No\" OrderNumber=\"17\" Role=\"Timing\"/>\r\n        <ItemRef ItemOID=\"IT.OE.OEDY\" Mandatory=\"No\" OrderNumber=\"18\" MethodOID=\"MT.DAYCALC\" Role=\"Timing\"/>\r\n        <def:Class Name=\"FINDINGS\"/>\r\n        <def:leaf ID=\"LF.OE\" xlink:href=\"oe.xpt\">\r\n          <def:title>oe.xpt</def:title>\r\n        </def:leaf>\r\n      </ItemGroupDef>\r\n      <!-- Dataset Definition (QSPH) -->\r\n      <ItemGroupDef OID=\"IG.QSPH\" Name=\"QSPH\" Domain=\"QS\"\r\n        Repeating=\"Yes\" IsReferenceData=\"No\" SASDatasetName=\"QSPH\"\r\n        def:Structure=\"One record per questionnaire finding per visit per subject\"\r\n        Purpose=\"Tabulation\" def:StandardOID=\"STD.1\"\r\n def:CommentOID=\"COM.QS1\" def:ArchiveLocationID=\"LF.QSPH\">\r\n        <Description>\r\n          <TranslatedText xml:lang=\"en\">Questionnaires (PHQ-9)</TranslatedText>\r\n        </Description>\r\n        <ItemRef ItemOID=\"IT.QSPH.STUDYID\" Mandatory=\"Yes\" OrderNumber=\"1\" KeySequence=\"1\" Role=\"Identifier\"/>\r\n        <ItemRef ItemOID=\"IT.QSPH.DOMAIN\" Mandatory=\"Yes\" OrderNumber=\"2\" Role=\"Identifier\"/>\r\n        <ItemRef ItemOID=\"IT.QSPH.USUBJID\" Mandatory=\"Yes\" OrderNumber=\"3\" KeySequence=\"2\" Role=\"Identifier\"/>\r\n        <ItemRef ItemOID=\"IT.QSPH.QSSEQ\" Mandatory=\"Yes\" OrderNumber=\"4\" MethodOID=\"MT.SEQ\" Role=\"Identifier\"/>\r\n        <ItemRef ItemOID=\"IT.QSPH.QSTESTCD\" Mandatory=\"Yes\" OrderNumber=\"5\" KeySequence=\"3\" Role=\"Topic\"/>\r\n        <ItemRef ItemOID=\"IT.QSPH.QSTEST\" Mandatory=\"Yes\" OrderNumber=\"6\" Role=\"Synonym Qualifier\"/>\r\n        <ItemRef ItemOID=\"IT.QSPH.QSCAT\" Mandatory=\"Yes\" OrderNumber=\"7\" Role=\"Grouping Qualifier\"/>\r\n        <ItemRef ItemOID=\"IT.QSPH.QSORRES\" Mandatory=\"No\" OrderNumber=\"8\" Role=\"Result Qualifier\"/>\r\n        <ItemRef ItemOID=\"IT.QSPH.QSSTRESC\" Mandatory=\"No\" OrderNumber=\"9\" Role=\"Result Qualifier\"/>\r\n        <ItemRef ItemOID=\"IT.QSPH.QSSTRESN\" Mandatory=\"No\" OrderNumber=\"10\" MethodOID=\"MT.QSSTRESN\" Role=\"Result Qualifier\"/>\r\n        <ItemRef ItemOID=\"IT.QSPH.QSLOBXFL\" Mandatory=\"No\" OrderNumber=\"11\" MethodOID=\"MT.LOBXFL\" Role=\"Record Qualifier\"/>\r\n        <ItemRef ItemOID=\"IT.QSPH.VISITNUM\" Mandatory=\"No\" OrderNumber=\"12\" KeySequence=\"4\" Role=\"Timing\"/>\r\n        <ItemRef ItemOID=\"IT.QSPH.VISIT\" Mandatory=\"No\" OrderNumber=\"13\" Role=\"Timing\"/>\r\n        <ItemRef ItemOID=\"IT.QSPH.EPOCH\" Mandatory=\"No\" OrderNumber=\"14\" MethodOID=\"MT.EPOCH\" Role=\"Timing\"/>\r\n        <ItemRef ItemOID=\"IT.QSPH.QSDTC\" Mandatory=\"No\" OrderNumber=\"15\" Role=\"Timing\"/>\r\n        <ItemRef ItemOID=\"IT.QSPH.QSDY\" Mandatory=\"No\" OrderNumber=\"16\" MethodOID=\"MT.DAYCALC\" Role=\"Timing\"/>\r\n        <ItemRef ItemOID=\"IT.QSPH.QSEVLINT\" Mandatory=\"No\" OrderNumber=\"17\" Role=\"Timing\"/>\r\n        <Alias Context=\"DomainDescription\" Name=\"Questionnaires\"/>\r\n        <def:Class Name=\"FINDINGS\"/>\r\n        <def:leaf ID=\"LF.QSPH\" xlink:href=\"qsph.xpt\">\r\n          <def:title>qsph.xpt</def:title>\r\n        </def:leaf>\r\n      </ItemGroupDef>\r\n      <!-- Dataset Definition (QSSL) -->\r\n      <ItemGroupDef OID=\"IG.QSSL\" Name=\"QSSL\" Domain=\"QS\"\r\n        Repeating=\"Yes\" IsReferenceData=\"No\" SASDatasetName=\"QSSL\"\r\n        def:Structure=\"One record per questionnaire finding per visit per subject\"\r\n        Purpose=\"Tabulation\" def:StandardOID=\"STD.1\"\r\n def:CommentOID=\"COM.QS2\" def:ArchiveLocationID=\"LF.QSSL\">\r\n        <Description>\r\n          <TranslatedText xml:lang=\"en\">Questionnaires (SQLS)</TranslatedText>\r\n        </Description>\r\n        <ItemRef ItemOID=\"IT.QSSL.STUDYID\" Mandatory=\"Yes\" OrderNumber=\"1\" KeySequence=\"1\" Role=\"Identifier\"/>\r\n        <ItemRef ItemOID=\"IT.QSSL.DOMAIN\" Mandatory=\"Yes\" OrderNumber=\"2\" Role=\"Identifier\"/>\r\n        <ItemRef ItemOID=\"IT.QSSL.USUBJID\" Mandatory=\"Yes\" OrderNumber=\"3\" KeySequence=\"2\" Role=\"Identifier\"/>\r\n        <ItemRef ItemOID=\"IT.QSSL.QSSEQ\" Mandatory=\"Yes\" OrderNumber=\"4\" MethodOID=\"MT.SEQ\" Role=\"Identifier\"/>\r\n        <ItemRef ItemOID=\"IT.QSSL.QSTESTCD\" Mandatory=\"Yes\" OrderNumber=\"5\" KeySequence=\"3\" Role=\"Topic\"/>\r\n        <ItemRef ItemOID=\"IT.QSSL.QSTEST\" Mandatory=\"Yes\" OrderNumber=\"6\" Role=\"Synonym Qualifier\"/>\r\n        <ItemRef ItemOID=\"IT.QSSL.QSCAT\" Mandatory=\"Yes\" OrderNumber=\"7\" Role=\"Grouping Qualifier\"/>\r\n        <ItemRef ItemOID=\"IT.QSSL.QSORRES\" Mandatory=\"No\" OrderNumber=\"8\" Role=\"Result Qualifier\"/>\r\n        <ItemRef ItemOID=\"IT.QSSL.QSSTRESC\" Mandatory=\"No\" OrderNumber=\"9\" MethodOID=\"MT.QSSTRESC_SL\" Role=\"Result Qualifier\"/>\r\n        <ItemRef ItemOID=\"IT.QSSL.QSSTRESN\" Mandatory=\"No\" OrderNumber=\"10\" MethodOID=\"MT.QSSTRESN\" Role=\"Result Qualifier\"/>\r\n        <ItemRef ItemOID=\"IT.QSSL.QSLOBXFL\" Mandatory=\"No\" OrderNumber=\"11\" MethodOID=\"MT.LOBXFL\" Role=\"Record Qualifier\"/>\r\n        <ItemRef ItemOID=\"IT.QSSL.VISITNUM\" Mandatory=\"No\" OrderNumber=\"12\" KeySequence=\"4\" Role=\"Timing\"/>\r\n        <ItemRef ItemOID=\"IT.QSSL.VISIT\" Mandatory=\"No\" OrderNumber=\"13\" Role=\"Timing\"/>\r\n        <ItemRef ItemOID=\"IT.QSSL.EPOCH\" Mandatory=\"No\" OrderNumber=\"14\" MethodOID=\"MT.EPOCH\" Role=\"Timing\"/>\r\n        <ItemRef ItemOID=\"IT.QSSL.QSDTC\" Mandatory=\"No\" OrderNumber=\"15\" Role=\"Timing\"/>\r\n        <ItemRef ItemOID=\"IT.QSSL.QSDY\" Mandatory=\"No\" OrderNumber=\"16\" MethodOID=\"MT.DAYCALC\" Role=\"Timing\"/>\r\n        <Alias Context=\"DomainDescription\" Name=\"Questionnaires\"/>\r\n        <def:Class Name=\"FINDINGS\"/>\r\n        <def:leaf ID=\"LF.QSSL\" xlink:href=\"qssl.xpt\">\r\n          <def:title>qssl.xpt</def:title>\r\n        </def:leaf>\r\n      </ItemGroupDef>\r\n      <!-- Dataset Definition (RS) -->\r\n      <ItemGroupDef OID=\"IG.RS\" Name=\"RS\" Domain=\"RS\"\r\n        Repeating=\"Yes\" IsReferenceData=\"No\" SASDatasetName=\"RS\"\r\n        def:Structure=\"One record per response assessment or clinical classification assessment per time point per visit per subject per assessor per medical evaluator\"\r\n        Purpose=\"Tabulation\" def:StandardOID=\"STD.1\"\r\n def:ArchiveLocationID=\"LF.RS\">\r\n        <Description>\r\n          <TranslatedText xml:lang=\"en\">Disease Response and Clin Classification</TranslatedText>\r\n        </Description>\r\n        <ItemRef ItemOID=\"IT.RS.STUDYID\" Mandatory=\"Yes\" OrderNumber=\"1\" KeySequence=\"1\" Role=\"Identifier\"/>\r\n        <ItemRef ItemOID=\"IT.RS.DOMAIN\" Mandatory=\"Yes\" OrderNumber=\"2\" Role=\"Identifier\"/>\r\n        <ItemRef ItemOID=\"IT.RS.USUBJID\" Mandatory=\"Yes\" OrderNumber=\"3\" KeySequence=\"2\" Role=\"Identifier\"/>\r\n        <ItemRef ItemOID=\"IT.RS.RSSEQ\" Mandatory=\"Yes\" OrderNumber=\"4\" MethodOID=\"MT.SEQ\" Role=\"Identifier\"/>\r\n        <ItemRef ItemOID=\"IT.RS.RSTESTCD\" Mandatory=\"Yes\" OrderNumber=\"5\" KeySequence=\"3\" Role=\"Topic\"/>\r\n        <ItemRef ItemOID=\"IT.RS.RSTEST\" Mandatory=\"Yes\" OrderNumber=\"6\" Role=\"Synonym Qualifier\"/>\r\n        <ItemRef ItemOID=\"IT.RS.RSCAT\" Mandatory=\"Yes\" OrderNumber=\"7\" Role=\"Grouping Qualifier\"/>\r\n        <ItemRef ItemOID=\"IT.RS.RSORRES\" Mandatory=\"No\" OrderNumber=\"8\" Role=\"Result Qualifier\"/>\r\n        <ItemRef ItemOID=\"IT.RS.RSSTRESC\" Mandatory=\"No\" OrderNumber=\"9\" MethodOID=\"MT.RSSTRESC\" Role=\"Result Qualifier\"/>\r\n        <ItemRef ItemOID=\"IT.RS.RSSTRESN\" Mandatory=\"No\" OrderNumber=\"10\" MethodOID=\"MT.STRESN\" Role=\"Result Qualifier\"/>\r\n        <ItemRef ItemOID=\"IT.RS.RSLOBXFL\" Mandatory=\"No\" OrderNumber=\"11\" MethodOID=\"MT.LOBXFL\" Role=\"Record Qualifier\"/>\r\n        <ItemRef ItemOID=\"IT.RS.VISITNUM\" Mandatory=\"No\" OrderNumber=\"12\" KeySequence=\"4\" Role=\"Timing\"/>\r\n        <ItemRef ItemOID=\"IT.RS.VISIT\" Mandatory=\"No\" OrderNumber=\"13\" Role=\"Timing\"/>\r\n        <ItemRef ItemOID=\"IT.RS.EPOCH\" Mandatory=\"No\" OrderNumber=\"14\" MethodOID=\"MT.EPOCH\" Role=\"Timing\"/>\r\n        <ItemRef ItemOID=\"IT.RS.RSDTC\" Mandatory=\"No\" OrderNumber=\"15\" Role=\"Timing\"/>\r\n        <ItemRef ItemOID=\"IT.RS.RSDY\" Mandatory=\"No\" OrderNumber=\"16\" MethodOID=\"MT.DAYCALC\" Role=\"Timing\"/>\r\n        <ItemRef ItemOID=\"IT.RS.RSEVLINT\" Mandatory=\"No\" OrderNumber=\"17\" Role=\"Timing\"/>\r\n        <def:Class Name=\"FINDINGS\"/>\r\n        <def:leaf ID=\"LF.RS\" xlink:href=\"rs.xpt\">\r\n          <def:title>rs.xpt</def:title>\r\n        </def:leaf>\r\n      </ItemGroupDef>\r\n      <!-- Dataset Definition (VS) -->\r\n      <ItemGroupDef OID=\"IG.VS\" Name=\"VS\" Domain=\"VS\"\r\n        Repeating=\"Yes\" IsReferenceData=\"No\" SASDatasetName=\"VS\"\r\n        def:Structure=\"One record per vital sign measurement per visit per subject\"\r\n        Purpose=\"Tabulation\" def:StandardOID=\"STD.1\"\r\n def:ArchiveLocationID=\"LF.VS\">\r\n        <Description>\r\n          <TranslatedText xml:lang=\"en\">Vital Signs</TranslatedText>\r\n        </Description>\r\n        <ItemRef ItemOID=\"IT.VS.STUDYID\" Mandatory=\"Yes\" OrderNumber=\"1\" KeySequence=\"1\" Role=\"Identifier\"/>\r\n        <ItemRef ItemOID=\"IT.VS.DOMAIN\" Mandatory=\"Yes\" OrderNumber=\"2\" Role=\"Identifier\"/>\r\n        <ItemRef ItemOID=\"IT.VS.USUBJID\" Mandatory=\"Yes\" OrderNumber=\"3\" KeySequence=\"2\" Role=\"Identifier\"/>\r\n        <ItemRef ItemOID=\"IT.VS.VSSEQ\" Mandatory=\"Yes\" OrderNumber=\"4\" MethodOID=\"MT.SEQ\" Role=\"Identifier\"/>\r\n        <ItemRef ItemOID=\"IT.VS.VSTESTCD\" Mandatory=\"Yes\" OrderNumber=\"5\" KeySequence=\"3\" Role=\"Topic\"/>\r\n        <ItemRef ItemOID=\"IT.VS.VSTEST\" Mandatory=\"Yes\" OrderNumber=\"6\" Role=\"Synonym Qualifier\"/>\r\n        <ItemRef ItemOID=\"IT.VS.VSPOS\" Mandatory=\"No\" OrderNumber=\"7\" KeySequence=\"4\" Role=\"Record Qualifier\"/>\r\n        <ItemRef ItemOID=\"IT.VS.VSORRES\" Mandatory=\"No\" OrderNumber=\"8\" Role=\"Result Qualifier\"/>\r\n        <ItemRef ItemOID=\"IT.VS.VSORRESU\" Mandatory=\"No\" OrderNumber=\"9\" Role=\"Variable Qualifier\"/>\r\n        <ItemRef ItemOID=\"IT.VS.VSSTRESC\" Mandatory=\"No\" OrderNumber=\"10\" MethodOID=\"MT.VSSTRESC\" Role=\"Result Qualifier\"/>\r\n        <ItemRef ItemOID=\"IT.VS.VSSTRESN\" Mandatory=\"No\" OrderNumber=\"11\" MethodOID=\"MT.STRESN\" Role=\"Result Qualifier\"/>\r\n        <ItemRef ItemOID=\"IT.VS.VSSTRESU\" Mandatory=\"No\" OrderNumber=\"12\" Role=\"Variable Qualifier\"/>\r\n        <ItemRef ItemOID=\"IT.VS.VSSTAT\" Mandatory=\"No\" OrderNumber=\"13\" Role=\"Record Qualifier\" def:HasNoData=\"Yes\"/>\r\n        <ItemRef ItemOID=\"IT.VS.VSLOC\" Mandatory=\"No\" OrderNumber=\"14\" Role=\"Record Qualifier\"/>\r\n        <ItemRef ItemOID=\"IT.VS.VSLOBXFL\" Mandatory=\"No\" OrderNumber=\"15\" MethodOID=\"MT.LOBXFL\" Role=\"Record Qualifier\"/>\r\n        <ItemRef ItemOID=\"IT.VS.VSREPNUM\" Mandatory=\"No\" OrderNumber=\"16\" KeySequence=\"6\" Role=\"Record Qualifier\"/>\r\n        <ItemRef ItemOID=\"IT.VS.VISITNUM\" Mandatory=\"No\" OrderNumber=\"17\" KeySequence=\"5\" Role=\"Timing\"/>\r\n        <ItemRef ItemOID=\"IT.VS.VISIT\" Mandatory=\"No\" OrderNumber=\"18\" Role=\"Timing\"/>\r\n        <ItemRef ItemOID=\"IT.VS.EPOCH\" Mandatory=\"No\" OrderNumber=\"19\" MethodOID=\"MT.EPOCH\" Role=\"Timing\"/>\r\n        <ItemRef ItemOID=\"IT.VS.VSDTC\" Mandatory=\"No\" OrderNumber=\"20\" Role=\"Timing\"/>\r\n        <ItemRef ItemOID=\"IT.VS.VSDY\" Mandatory=\"No\" OrderNumber=\"21\" MethodOID=\"MT.DAYCALC\" Role=\"Timing\"/>\r\n        <def:Class Name=\"FINDINGS\"/>\r\n        <def:leaf ID=\"LF.VS\" xlink:href=\"vs.xpt\">\r\n          <def:title>vs.xpt</def:title>\r\n        </def:leaf>\r\n      </ItemGroupDef>\r\n      <!-- Dataset Definition (FA) -->\r\n      <ItemGroupDef OID=\"IG.FA\" Name=\"FA\" Domain=\"FA\"\r\n        Repeating=\"Yes\" IsReferenceData=\"No\" SASDatasetName=\"FA\"\r\n        def:Structure=\"One record per finding per object per subject\"\r\n        Purpose=\"Tabulation\" def:StandardOID=\"STD.1\"\r\n def:CommentOID=\"COM.FA2\" def:ArchiveLocationID=\"LF.FA\">\r\n        <Description>\r\n          <TranslatedText xml:lang=\"en\">Findings About Events or Interventions</TranslatedText>\r\n        </Description>\r\n        <ItemRef ItemOID=\"IT.FA.STUDYID\" Mandatory=\"Yes\" OrderNumber=\"1\" KeySequence=\"1\" Role=\"Identifier\"/>\r\n        <ItemRef ItemOID=\"IT.FA.DOMAIN\" Mandatory=\"Yes\" OrderNumber=\"2\" Role=\"Identifier\"/>\r\n        <ItemRef ItemOID=\"IT.FA.USUBJID\" Mandatory=\"Yes\" OrderNumber=\"3\" KeySequence=\"2\" Role=\"Identifier\"/>\r\n        <ItemRef ItemOID=\"IT.FA.FASEQ\" Mandatory=\"Yes\" OrderNumber=\"4\" MethodOID=\"MT.SEQ\" Role=\"Identifier\"/>\r\n        <ItemRef ItemOID=\"IT.FA.FALNKGRP\" Mandatory=\"No\" OrderNumber=\"5\" KeySequence=\"4\" Role=\"Identifier\"/>\r\n        <ItemRef ItemOID=\"IT.FA.FATESTCD\" Mandatory=\"Yes\" OrderNumber=\"6\" KeySequence=\"3\" Role=\"Topic\"/>\r\n        <ItemRef ItemOID=\"IT.FA.FATEST\" Mandatory=\"Yes\" OrderNumber=\"7\" Role=\"Synonym Qualifier\"/>\r\n        <ItemRef ItemOID=\"IT.FA.FAOBJ\" Mandatory=\"Yes\" OrderNumber=\"8\" KeySequence=\"5\" Role=\"Record Qualifier\"/>\r\n        <ItemRef ItemOID=\"IT.FA.FACAT\" Mandatory=\"No\" OrderNumber=\"9\" Role=\"Grouping Qualifier\"/>\r\n        <ItemRef ItemOID=\"IT.FA.FAORRES\" Mandatory=\"No\" OrderNumber=\"10\" Role=\"Result Qualifier\"/>\r\n        <ItemRef ItemOID=\"IT.FA.FASTRESC\" Mandatory=\"No\" OrderNumber=\"11\" Role=\"Result Qualifier\"/>\r\n        <ItemRef ItemOID=\"IT.FA.FALOC\" Mandatory=\"No\" OrderNumber=\"12\" Role=\"Record Qualifier\"/>\r\n        <ItemRef ItemOID=\"IT.FA.VISITNUM\" Mandatory=\"No\" OrderNumber=\"13\" Role=\"Timing\"/>\r\n        <ItemRef ItemOID=\"IT.FA.EPOCH\" Mandatory=\"No\" OrderNumber=\"14\" Role=\"Timing\"/>\r\n        <ItemRef ItemOID=\"IT.FA.FADTC\" Mandatory=\"No\" OrderNumber=\"15\" KeySequence=\"6\" Role=\"Timing\"/>\r\n        <ItemRef ItemOID=\"IT.FA.FADY\" Mandatory=\"No\" OrderNumber=\"16\" MethodOID=\"MT.DAYCALC\" Role=\"Timing\"/>\r\n        <def:Class Name=\"FINDINGS ABOUT\"/>\r\n        <def:leaf ID=\"LF.FA\" xlink:href=\"fa.xpt\">\r\n          <def:title>fa.xpt</def:title>\r\n        </def:leaf>\r\n      </ItemGroupDef>\r\n      <!-- Dataset Definition (RELREC) -->\r\n      <ItemGroupDef OID=\"IG.RELREC\" Name=\"RELREC\" Domain=\"RELREC\"\r\n        Repeating=\"Yes\" IsReferenceData=\"No\" SASDatasetName=\"RELREC\"\r\n        def:Structure=\"One record per related record, group of records or dataset\"\r\n        Purpose=\"Tabulation\" def:StandardOID=\"STD.1\"\r\n def:ArchiveLocationID=\"LF.RELREC\">\r\n        <Description>\r\n          <TranslatedText xml:lang=\"en\">Related Records</TranslatedText>\r\n        </Description>\r\n        <ItemRef ItemOID=\"IT.RELREC.STUDYID\" Mandatory=\"Yes\" OrderNumber=\"1\" KeySequence=\"1\" Role=\"Identifier\"/>\r\n        <ItemRef ItemOID=\"IT.RELREC.RDOMAIN\" Mandatory=\"Yes\" OrderNumber=\"2\" KeySequence=\"2\" Role=\"Identifier\"/>\r\n        <ItemRef ItemOID=\"IT.RELREC.USUBJID\" Mandatory=\"No\" OrderNumber=\"3\" KeySequence=\"3\" Role=\"Identifier\"/>\r\n        <ItemRef ItemOID=\"IT.RELREC.IDVAR\" Mandatory=\"Yes\" OrderNumber=\"4\" KeySequence=\"4\" Role=\"Identifier\"/>\r\n        <ItemRef ItemOID=\"IT.RELREC.IDVARVAL\" Mandatory=\"No\" OrderNumber=\"5\" KeySequence=\"5\" Role=\"Identifier\"/>\r\n        <ItemRef ItemOID=\"IT.RELREC.RELTYPE\" Mandatory=\"No\" OrderNumber=\"6\" Role=\"Record Qualifier\"/>\r\n        <ItemRef ItemOID=\"IT.RELREC.RELID\" Mandatory=\"Yes\" OrderNumber=\"7\" KeySequence=\"6\" Role=\"Record Qualifier\"/>\r\n        <def:Class Name=\"RELATIONSHIP\"/>\r\n        <def:leaf ID=\"LF.RELREC\" xlink:href=\"relrec.xpt\">\r\n          <def:title>relrec.xpt</def:title>\r\n        </def:leaf>\r\n      </ItemGroupDef>\r\n      <!-- Dataset Definition (SUPPDM) -->\r\n      <ItemGroupDef OID=\"IG.SUPPDM\" Name=\"SUPPDM\" Domain=\"DM\"\r\n        Repeating=\"Yes\" IsReferenceData=\"No\" SASDatasetName=\"SUPPDM\"\r\n        def:Structure=\"One record per IDVAR, IDVARVAL, and QNAM value per subject\"\r\n        Purpose=\"Tabulation\" def:StandardOID=\"STD.1\"\r\n def:ArchiveLocationID=\"LF.SUPPDM\">\r\n        <Description>\r\n          <TranslatedText xml:lang=\"en\">Supplemental Qualifiers for DM</TranslatedText>\r\n        </Description>\r\n        <ItemRef ItemOID=\"IT.SUPPDM.STUDYID\" Mandatory=\"Yes\" OrderNumber=\"1\" KeySequence=\"1\" Role=\"Identifier\"/>\r\n        <ItemRef ItemOID=\"IT.SUPPDM.RDOMAIN\" Mandatory=\"Yes\" OrderNumber=\"2\" KeySequence=\"2\" Role=\"Identifier\"/>\r\n        <ItemRef ItemOID=\"IT.SUPPDM.USUBJID\" Mandatory=\"Yes\" OrderNumber=\"3\" KeySequence=\"3\" Role=\"Identifier\"/>\r\n        <ItemRef ItemOID=\"IT.SUPPDM.IDVAR\" Mandatory=\"No\" OrderNumber=\"4\" KeySequence=\"4\" Role=\"Identifier\"/>\r\n        <ItemRef ItemOID=\"IT.SUPPDM.IDVARVAL\" Mandatory=\"No\" OrderNumber=\"5\" KeySequence=\"5\" Role=\"Identifier\"/>\r\n        <ItemRef ItemOID=\"IT.SUPPDM.QNAM\" Mandatory=\"Yes\" OrderNumber=\"6\" KeySequence=\"6\" Role=\"Topic\"/>\r\n        <ItemRef ItemOID=\"IT.SUPPDM.QLABEL\" Mandatory=\"Yes\" OrderNumber=\"7\" Role=\"Synonym Qualifier\"/>\r\n        <ItemRef ItemOID=\"IT.SUPPDM.QVAL\" Mandatory=\"Yes\" OrderNumber=\"8\" Role=\"Result Qualifier\"/>\r\n        <ItemRef ItemOID=\"IT.SUPPDM.QORIG\" Mandatory=\"Yes\" OrderNumber=\"9\" Role=\"Record Qualifier\"/>\r\n        <ItemRef ItemOID=\"IT.SUPPDM.QEVAL\" Mandatory=\"No\" OrderNumber=\"10\" Role=\"Record Qualifier\"/>\r\n        <Alias Context=\"DomainDescription\" Name=\"Demographics\"/>\r\n        <def:Class Name=\"RELATIONSHIP\"/>\r\n        <def:leaf ID=\"LF.SUPPDM\" xlink:href=\"suppdm.xpt\">\r\n          <def:title>suppdm.xpt</def:title>\r\n        </def:leaf>\r\n      </ItemGroupDef>\r\n      <!-- Dataset Definition (SUPPEC) -->\r\n      <ItemGroupDef OID=\"IG.SUPPEC\" Name=\"SUPPEC\" Domain=\"EC\"\r\n        Repeating=\"Yes\" IsReferenceData=\"No\" SASDatasetName=\"SUPPEC\"\r\n        def:Structure=\"One record per IDVAR, IDVARVAL, and QNAM value per subject\"\r\n        Purpose=\"Tabulation\" def:StandardOID=\"STD.1\"\r\n def:ArchiveLocationID=\"LF.SUPPEC\">\r\n        <Description>\r\n          <TranslatedText xml:lang=\"en\">Supplemental Qualifiers for EC</TranslatedText>\r\n        </Description>\r\n        <ItemRef ItemOID=\"IT.SUPPEC.STUDYID\" Mandatory=\"Yes\" OrderNumber=\"1\" KeySequence=\"1\" Role=\"Identifier\"/>\r\n        <ItemRef ItemOID=\"IT.SUPPEC.RDOMAIN\" Mandatory=\"Yes\" OrderNumber=\"2\" KeySequence=\"2\" Role=\"Identifier\"/>\r\n        <ItemRef ItemOID=\"IT.SUPPEC.USUBJID\" Mandatory=\"Yes\" OrderNumber=\"3\" KeySequence=\"3\" Role=\"Identifier\"/>\r\n        <ItemRef ItemOID=\"IT.SUPPEC.IDVAR\" Mandatory=\"No\" OrderNumber=\"4\" KeySequence=\"4\" Role=\"Identifier\"/>\r\n        <ItemRef ItemOID=\"IT.SUPPEC.IDVARVAL\" Mandatory=\"No\" OrderNumber=\"5\" KeySequence=\"5\" Role=\"Identifier\"/>\r\n        <ItemRef ItemOID=\"IT.SUPPEC.QNAM\" Mandatory=\"Yes\" OrderNumber=\"6\" KeySequence=\"6\" Role=\"Topic\"/>\r\n        <ItemRef ItemOID=\"IT.SUPPEC.QLABEL\" Mandatory=\"Yes\" OrderNumber=\"7\" Role=\"Synonym Qualifier\"/>\r\n        <ItemRef ItemOID=\"IT.SUPPEC.QVAL\" Mandatory=\"Yes\" OrderNumber=\"8\" Role=\"Result Qualifier\"/>\r\n        <ItemRef ItemOID=\"IT.SUPPEC.QORIG\" Mandatory=\"Yes\" OrderNumber=\"9\" Role=\"Record Qualifier\"/>\r\n        <ItemRef ItemOID=\"IT.SUPPEC.QEVAL\" Mandatory=\"No\" OrderNumber=\"10\" Role=\"Record Qualifier\"/>\r\n        <Alias Context=\"DomainDescription\" Name=\"Exposure as Collected\"/>\r\n        <def:Class Name=\"RELATIONSHIP\"/>\r\n        <def:leaf ID=\"LF.SUPPEC\" xlink:href=\"suppec.xpt\">\r\n          <def:title>suppec.xpt</def:title>\r\n        </def:leaf>\r\n      </ItemGroupDef>\r\n      <!-- Dataset Definition (SUPPNV) -->\r\n      <ItemGroupDef OID=\"IG.SUPPNV\" Name=\"SUPPNV\" Domain=\"NV\"\r\n        Repeating=\"Yes\" IsReferenceData=\"No\" SASDatasetName=\"SUPPNV\"\r\n        def:Structure=\"One record per IDVAR, IDVARVAL, and QNAM value per subject\"\r\n        Purpose=\"Tabulation\" def:StandardOID=\"STD.1\"\r\n        def:HasNoData=\"Yes\" def:CommentOID=\"COM.NV2\">\r\n        <Description>\r\n          <TranslatedText xml:lang=\"en\">Supplemental Qualifiers for NV</TranslatedText>\r\n        </Description>\r\n        <ItemRef ItemOID=\"IT.SUPPNV.STUDYID\" Mandatory=\"Yes\" OrderNumber=\"1\" KeySequence=\"1\" Role=\"Identifier\"/>\r\n        <ItemRef ItemOID=\"IT.SUPPNV.RDOMAIN\" Mandatory=\"Yes\" OrderNumber=\"2\" KeySequence=\"2\" Role=\"Identifier\"/>\r\n        <ItemRef ItemOID=\"IT.SUPPNV.USUBJID\" Mandatory=\"Yes\" OrderNumber=\"3\" KeySequence=\"3\" Role=\"Identifier\"/>\r\n        <ItemRef ItemOID=\"IT.SUPPNV.IDVAR\" Mandatory=\"No\" OrderNumber=\"4\" KeySequence=\"4\" Role=\"Identifier\"/>\r\n        <ItemRef ItemOID=\"IT.SUPPNV.IDVARVAL\" Mandatory=\"No\" OrderNumber=\"5\" KeySequence=\"5\" Role=\"Identifier\"/>\r\n        <ItemRef ItemOID=\"IT.SUPPNV.QNAM\" Mandatory=\"Yes\" OrderNumber=\"6\" KeySequence=\"6\" Role=\"Topic\"/>\r\n        <ItemRef ItemOID=\"IT.SUPPNV.QLABEL\" Mandatory=\"Yes\" OrderNumber=\"7\" Role=\"Synonym Qualifier\"/>\r\n        <ItemRef ItemOID=\"IT.SUPPNV.QVAL\" Mandatory=\"Yes\" OrderNumber=\"8\" Role=\"Result Qualifier\"/>\r\n        <ItemRef ItemOID=\"IT.SUPPNV.QORIG\" Mandatory=\"Yes\" OrderNumber=\"9\" Role=\"Record Qualifier\"/>\r\n        <ItemRef ItemOID=\"IT.SUPPNV.QEVAL\" Mandatory=\"No\" OrderNumber=\"10\" Role=\"Record Qualifier\"/>\r\n        <Alias Context=\"DomainDescription\" Name=\"Nervous System Findings\"/>\r\n        <def:Class Name=\"RELATIONSHIP\"/>\r\n      </ItemGroupDef>\r\n      <!-- Dataset Definition (SUPPOE) -->\r\n      <ItemGroupDef OID=\"IG.SUPPOE\" Name=\"SUPPOE\" Domain=\"OE\"\r\n        Repeating=\"Yes\" IsReferenceData=\"No\" SASDatasetName=\"SUPPOE\"\r\n        def:Structure=\"One record per IDVAR, IDVARVAL, and QNAM value per subject\"\r\n        Purpose=\"Tabulation\" def:StandardOID=\"STD.1\"\r\n        def:HasNoData=\"Yes\" def:CommentOID=\"COM.OE1\">\r\n        <Description>\r\n          <TranslatedText xml:lang=\"en\">Supplemental Qualifiers for OE</TranslatedText>\r\n        </Description>\r\n        <ItemRef ItemOID=\"IT.SUPPOE.STUDYID\" Mandatory=\"Yes\" OrderNumber=\"1\" KeySequence=\"1\" Role=\"Identifier\"/>\r\n        <ItemRef ItemOID=\"IT.SUPPOE.RDOMAIN\" Mandatory=\"Yes\" OrderNumber=\"2\" KeySequence=\"2\" Role=\"Identifier\"/>\r\n        <ItemRef ItemOID=\"IT.SUPPOE.USUBJID\" Mandatory=\"Yes\" OrderNumber=\"3\" KeySequence=\"3\" Role=\"Identifier\"/>\r\n        <ItemRef ItemOID=\"IT.SUPPOE.IDVAR\" Mandatory=\"No\" OrderNumber=\"4\" KeySequence=\"4\" Role=\"Identifier\"/>\r\n        <ItemRef ItemOID=\"IT.SUPPOE.IDVARVAL\" Mandatory=\"No\" OrderNumber=\"5\" KeySequence=\"5\" Role=\"Identifier\"/>\r\n        <ItemRef ItemOID=\"IT.SUPPOE.QNAM\" Mandatory=\"Yes\" OrderNumber=\"6\" KeySequence=\"6\" Role=\"Topic\"/>\r\n        <ItemRef ItemOID=\"IT.SUPPOE.QLABEL\" Mandatory=\"Yes\" OrderNumber=\"7\" Role=\"Synonym Qualifier\"/>\r\n        <ItemRef ItemOID=\"IT.SUPPOE.QVAL\" Mandatory=\"Yes\" OrderNumber=\"8\" Role=\"Result Qualifier\"/>\r\n        <ItemRef ItemOID=\"IT.SUPPOE.QORIG\" Mandatory=\"Yes\" OrderNumber=\"9\" Role=\"Record Qualifier\"/>\r\n        <ItemRef ItemOID=\"IT.SUPPOE.QEVAL\" Mandatory=\"No\" OrderNumber=\"10\" Role=\"Record Qualifier\"/>\r\n        <Alias Context=\"DomainDescription\" Name=\"Ophthalmic Examinations\"/>\r\n        <def:Class Name=\"RELATIONSHIP\"/>\r\n      </ItemGroupDef>\r\n      <!-- Dataset Definition (DI) -->\r\n      <ItemGroupDef OID=\"IG.DI\" Name=\"DI\" Domain=\"DI\"\r\n        Repeating=\"No\" IsReferenceData=\"Yes\" SASDatasetName=\"DI\"\r\n        def:Structure=\"One record per device identifier per device\"\r\n        Purpose=\"Tabulation\" def:StandardOID=\"STD.1\"\r\n def:ArchiveLocationID=\"LF.DI\">\r\n        <Description>\r\n          <TranslatedText xml:lang=\"en\">Device Identifiers</TranslatedText>\r\n        </Description>\r\n        <ItemRef ItemOID=\"IT.DI.STUDYID\" Mandatory=\"Yes\" OrderNumber=\"1\" KeySequence=\"1\" Role=\"Identifier\"/>\r\n        <ItemRef ItemOID=\"IT.DI.DOMAIN\" Mandatory=\"Yes\" OrderNumber=\"2\" Role=\"Identifier\"/>\r\n        <ItemRef ItemOID=\"IT.DI.SPDEVID\" Mandatory=\"Yes\" OrderNumber=\"3\" KeySequence=\"2\" Role=\"Identifier\"/>\r\n        <ItemRef ItemOID=\"IT.DI.DISEQ\" Mandatory=\"Yes\" OrderNumber=\"4\" MethodOID=\"MT.DISEQ\" Role=\"Identifier\"/>\r\n        <