Authorities:
  - Organization: CDISC
    Standards:
      - Name: ADaMIG
        References:
          - Citations:
              - Cited Guidance: CDISC Notes for TRTxxP state':'' At least TRT01P is required
                Document: ADaMIG
                Item: "Table 3.1.1"
                Section: "3.1"
            Criteria:
              Logical Expression:
                Condition: ""
                Rule: ""
              Plain Language Expression: ""
              Type: Failure
            Origin: ADaM Conformance Rules
            Release Notes: ""
            Rule Identifier:
              Id: "80"
              Version: ""
            Validator Rule Message: ""
            Version: "5.0"
        Version: "1.0"
      - Name: ADaMIG
        References:
          - Citations:
              - Cited Guidance: CDISC Notes for TRTxxP state':'' At least TRT01P is required
                Document: ADaMIG
                Item: "Table 3.1.1"
                Section: "3.1"
            Criteria:
              Logical Expression:
                Condition: ""
                Rule: ""
              Plain Language Expression: ""
              Type: Failure
            Origin: ADaM Conformance Rules
            Release Notes: ""
            Rule Identifier:
              Id: "80"
              Version: ""
            Validator Rule Message: ""
            Version: "5.0"
        Version: "1.1"
      - Name: ADaMIG
        References:
          - Citations:
              - Cited Guidance: CDISC Notes for TRTxxP state':'' At least TRT01P is required
                Document: ADaMIG
                Item: "Table 3.1.1"
                Section: "3.2"
            Criteria:
              Logical Expression:
                Condition: ""
                Rule: ""
              Plain Language Expression: ""
              Type: Failure
            Origin: ADaM Conformance Rules
            Release Notes: ""
            Rule Identifier:
              Id: "80"
              Version: ""
            Validator Rule Message: ""
            Version: "5.0"
        Version: "1.2"
      - Name: ADaMIG
        References:
          - Citations:
              - Cited Guidance: CDISC Notes for TRTxxP state':'' At least TRT01P is required
                Document: ADaMIG
                Item: "Table 3.1.1"
                Section: "3.2"
            Criteria:
              Logical Expression:
                Condition: ""
                Rule: ""
              Plain Language Expression: ""
              Type: Failure
            Origin: ADaM Conformance Rules
            Release Notes: ""
            Rule Identifier:
              Id: "80"
              Version: ""
            Validator Rule Message: ""
            Version: "5.0"
        Version: "1.3"
#follwoing is temporary coding to run the data, until oeprator to catched paired TRTxxA/TRTxxAP created.
Check:
  any:
    - all:
        - name: TRT01A
          operator: exists
        - name: TRT01P
          operator: not_exists
    - all:
        - name: TRT02A
          operator: exists
        - name: TRT02P
          operator: not_exists
    - all:
        - name: TRT03A
          operator: exists
        - name: TRT03P
          operator: not_exists
    - all:
        - name: TRT04A
          operator: exists
        - name: TRT04P
          operator: not_exists
  # - all:
  #     - name: TRT05A
  #       operator: exists
  #     - name: TRT05P
  #       operator: not_exists
  # - all:
  #     - name: TRT06A
  #       operator: exists
  #     - name: TRT06P
  #       operator: not_exists
  # - all:
  #     - name: TRT07A
  #       operator: exists
  #     - name: TRT07P
  #       operator: not_exists
  # - all:
  #     - name: TRT08P
  #       operator: exists
  #     - name: TRT08P
  #       operator: not_exists

  #Check:
  #  all:
  #    - name: variable_name # TRT11AN
  #      operator: matches_regex # test 1 exist clause
  #      value: ^TRT[0-9]{2}AN*$
  #    - name: $generated_variable_name # TRT11A
  #      operator: is_not_contained_by
  #      value: variable_name # [TRT11AN, ABCDE, FGHIJ]
Core:
  Id: CDISC.ADaMIG.AD080
  Status: Draft
  Version: "1"
Description: ""
Executability: Fully Executable
#Operations:
#  - find: ^TRT([0-9]{2})AN*$
#    id: $generated_variable_name
#    name: variable_name
#    operator: regex_find_replace
#    replace: TRT\1A
# generates TRTxxA
# TRT11AN -> TRT11A
# ABCDE -> TRTA or null?
Outcome:
  Message: TRTxxA is present and TRTxxP is not present in ADSL
  Output Variables:
    - USUBJID
    - SUBJID
    - TRT01A #skip check if variable not present in dataset
    #- TRT01P
    - TRT02A
    #- TRT02P
    - TRT03A
    #- TRT03P
    - TRT04A
    #- TRT04P
    #- TRT05A
    #- TRT05P
Rule Type: Record Data #Variable Metadata Check
Scope:
  Data Structures:
    Include:
      - SUBJECT LEVEL ANALYSIS DATASET
Sensitivity: Dataset
