{
  "rule": {
    "Authorities": [
      {
        "Organization": "CDISC",
        "Standards": [
          {
            "Name": "SDTMIG",
            "References": [
              {
                "Citations": [
                  {
                    "Document": "IG v3.4",
                    "Item": "Assumption 1",
                    "Section": "6.3.11",
                    "Cited_Guidance": "Subject Status does not contain details about the circumstances of a subject's status. The response to the status assessment may trigger collection of additional details, but those details are to be stored in appropriate separate domains. For example, if a subject's survival status is \"DEAD\", the date of death must be stored in DM and within a final disposition record in DS. Only the status collection date, the status question, and the status response are stored in SS."
                  }
                ],
                "Origin": "SDTM and SDTMIG Conformance Rules",
                "Version": "2.0",
                "Rule_Identifier": {
                  "Id": "CG0171",
                  "Version": "1"
                }
              }
            ],
            "Version": "3.4"
          },
          {
            "Name": "SDTMIG",
            "References": [
              {
                "Citations": [
                  {
                    "Document": "IG v3.3",
                    "Item": "Assumption 1",
                    "Section": "6.3.15",
                    "Cited_Guidance": "Subject Status does not contain details about the circumstances of a subject's status. The response to the status assessment may trigger collection of additional details but those details are to be stored in appropriate separate domains. For example, if a subject's Survival Status is \"DEAD\", the date of death must be stored in DM and within a final disposition record in DS. Only the status collection date, the status question and the status response are stored in SS."
                  }
                ],
                "Origin": "SDTM and SDTMIG Conformance Rules",
                "Version": "2.0",
                "Rule_Identifier": {
                  "Id": "CG0171",
                  "Version": "1"
                }
              }
            ],
            "Version": "3.3"
          },
          {
            "Name": "SDTMIG",
            "References": [
              {
                "Citations": [
                  {
                    "Document": "IG v3.2",
                    "Item": "Assumption 2",
                    "Section": "6.3.",
                    "Cited_Guidance": "Subject Status does not contain details about the circumstances of a subject's status. The response to the status assessment may trigger collection of additional details but those details are to be stored in appropriate separate domains. For example, if a subject's Survival Status is \"DEAD\", the date of death must be stored in DM and within a final disposition record in DS. Only the status collection date, the status question and the status response are stored in SS."
                  }
                ],
                "Origin": "SDTM and SDTMIG Conformance Rules",
                "Version": "2.0",
                "Rule_Identifier": {
                  "Id": "CG0171",
                  "Version": "1"
                }
              }
            ],
            "Version": "3.2"
          }
        ]
      },
      {
        "Organization": "FDA",
        "Standards": [
          {
            "Name": "SDTMIG",
            "References": [
              {
                "Citations": [
                  {
                    "Document": "FDA",
                    "Section": "FDAB006",
                    "Cited_Guidance": "All death information should be populated for subjects that died during the study including any post treatment follow-up."
                  }
                ],
                "Origin": "FDA Business Rules",
                "Version": "1.5",
                "Rule_Identifier": {
                  "Id": "FB0613",
                  "Version": "1"
                }
              }
            ],
            "Version": "3.2"
          },
          {
            "Name": "SDTMIG",
            "References": [
              {
                "Citations": [
                  {
                    "Document": "FDA",
                    "Section": "FDAB006",
                    "Cited_Guidance": "All death information should be populated for subjects that died during the study including any post treatment follow-up."
                  }
                ],
                "Origin": "FDA Business Rules",
                "Version": "1.5",
                "Rule_Identifier": {
                  "Id": "FB0613",
                  "Version": "1"
                }
              }
            ],
            "Version": "3.3"
          },
          {
            "Name": "SDTMIG",
            "References": [
              {
                "Citations": [
                  {
                    "Document": "FDA",
                    "Section": "FDAB006",
                    "Cited_Guidance": "All death information should be populated for subjects that died during the study including any post treatment follow-up."
                  }
                ],
                "Origin": "FDA Business Rules",
                "Version": "1.5",
                "Rule_Identifier": {
                  "Id": "FB0613",
                  "Version": "1"
                }
              }
            ],
            "Version": "3.4"
          }
        ]
      }
    ],
    "Check": {
      "all": [
        {
          "name": "SSSTRESC",
          "operator": "equal_to",
          "value": "DEAD",
          "value_is_literal": true
        },
        {
          "name": "SSDTC",
          "operator": "date_less_than",
          "value": "DTHDTC"
        }
      ]
    },
    "Core": {
      "Id": "CORE-000259",
      "Status": "Published",
      "Version": "1"
    },
    "Description": "Date time of collection of subject status in SS domain, where survival status is marked as DEAD, is on or after the date time of death populated in DM domain",
    "Executability": "Fully Executable",
    "Outcome": {
      "Message": "Date time of collection of subject status in SS domain, where survival status is marked as DEAD, is not on or after the date time of death populated in DM domain.",
      "Output_Variables": [
        "SSSTRESC",
        "SSDTC",
        "DTHDTC"
      ]
    },
    "Scope": {
      "Classes": {
        "Include": [
          "FINDINGS"
        ]
      },
      "Domains": {
        "Include": [
          "SS"
        ]
      }
    },
    "Sensitivity": "Record",
    "Match_Datasets": [
      {
        "Keys": [
          "USUBJID"
        ],
        "Name": "DM"
      }
    ],
    "Rule_Type": "Record Data"
  },
  "datasets": [
    {
      "filename": "dm.xpt",
      "label": "Demographics",
      "domain": "DM",
      "variables": [
        {
          "name": "STUDYID",
          "label": "Study Identifier",
          "type": "Char",
          "length": 12
        },
        {
          "name": "DOMAIN",
          "label": "Domain Abbreviation",
          "type": "Char",
          "length": 2
        },
        {
          "name": "USUBJID",
          "label": "Unique Subject Identifier",
          "type": "Char",
          "length": 8
        },
        {
          "name": "SUBJID",
          "label": "Subject Identifier for the Study",
          "type": "Char",
          "length": 4
        },
        {
          "name": "RFSTDTC",
          "label": "Subject Reference Start Date/Time",
          "type": "Char",
          "length": 10
        },
        {
          "name": "RFENDTC",
          "label": "Subject Reference End Date/Time",
          "type": "Char",
          "length": 10
        },
        {
          "name": "RFXSTDTC",
          "label": "Date/Time of First Study Treatment",
          "type": "Char",
          "length": 10
        },
        {
          "name": "RFXENDTC",
          "label": "Date/Time of Last Study Treatment",
          "type": "Char",
          "length": 10
        },
        {
          "name": "RFICDTC",
          "label": "Date/Time of Informed Consent",
          "type": "Char",
          "length": 10
        },
        {
          "name": "RFPENDTC",
          "label": "Date/Time of End of Participation",
          "type": "Char",
          "length": 10
        },
        {
          "name": "DTHDTC",
          "label": "Date/Time of Death",
          "type": "Char",
          "length": 10
        },
        {
          "name": "DTHFL",
          "label": "Subject Death Flag",
          "type": "Char",
          "length": 1
        },
        {
          "name": "SITEID",
          "label": "Study Site Identifier",
          "type": "Char",
          "length": 3
        },
        {
          "name": "BRTHDTC",
          "label": "Date/Time of Birth",
          "type": "Char",
          "length": 10
        },
        {
          "name": "AGE",
          "label": "Age",
          "type": "Num",
          "length": 8
        },
        {
          "name": "AGEU",
          "label": "Age Units",
          "type": "Char",
          "length": 5
        },
        {
          "name": "SEX",
          "label": "Sex",
          "type": "Char",
          "length": 1
        },
        {
          "name": "RACE",
          "label": "Race",
          "type": "Char",
          "length": 41
        },
        {
          "name": "ETHNIC",
          "label": "Ethnicity",
          "type": "Char",
          "length": 22
        },
        {
          "name": "ARMCD",
          "label": "Planned Arm Code",
          "type": "Char",
          "length": 8
        },
        {
          "name": "ARM",
          "label": "Description of Planned Arm",
          "type": "Char",
          "length": 28
        },
        {
          "name": "ACTARMCD",
          "label": "Actual Arm Code",
          "type": "Char",
          "length": 8
        },
        {
          "name": "ACTARM",
          "label": "Description of Actual Arm",
          "type": "Char",
          "length": 28
        },
        {
          "name": "ARMNRS",
          "label": "Reason Arm and/or Actual Arm is Null",
          "type": "Char",
          "length": 14
        },
        {
          "name": "ACTARMUD",
          "label": "Description of Unplanned Actual Arm",
          "type": "Char",
          "length": 200
        },
        {
          "name": "COUNTRY",
          "label": "Country",
          "type": "Char",
          "length": 3
        }
      ],
      "records": {
        "STUDYID": [
          "CDISCPILOT01",
          "CDISCPILOT01",
          "CDISCPILOT01"
        ],
        "DOMAIN": [
          "DM",
          "DM",
          "DM"
        ],
        "USUBJID": [
          "CDISC001",
          "CDISC002",
          "CDISC003"
        ],
        "SUBJID": [
          "1115",
          "1211",
          "1302"
        ],
        "RFSTDTC": [
          "2006-01-12",
          "2006-01-15",
          "2006-01-16"
        ],
        "RFENDTC": [
          "2006-03-10",
          "2006-02-28",
          "2006-03-19"
        ],
        "RFXSTDTC": [
          "2006-01-12",
          "2006-01-15",
          "2006-01-16"
        ],
        "RFXENDTC": [
          "2006-03-10",
          "2006-02-28",
          "2006-03-19"
        ],
        "RFICDTC": [
          "2006-01-03",
          "2006-01-04",
          "2006-01-02"
        ],
        "RFPENDTC": [
          "2006-04-01",
          "2006-03-26",
          "2006-03-19"
        ],
        "DTHDTC": [
          "2006-04-01",
          "2006-03-26",
          "2006-03-19"
        ],
        "DTHFL": [
          "y",
          "Y",
          ""
        ],
        "SITEID": [
          "701",
          "701",
          "701"
        ],
        "BRTHDTC": [
          "1948",
          "1955",
          "1933"
        ],
        "AGE": [
          57,
          50,
          68
        ],
        "AGEU": [
          "YEARS",
          "YEARS",
          "YEARS"
        ],
        "SEX": [
          "M",
          "F",
          "M"
        ],
        "RACE": [
          "WHITE",
          "WHITE",
          "WHITE"
        ],
        "ETHNIC": [
          "NOT HISPANIC OR LATINO",
          "NOT HISPANIC OR LATINO",
          "NOT HISPANIC OR LATINO"
        ],
        "ARMCD": [
          "A",
          "P",
          "B"
        ],
        "ARM": [
          "Drug A",
          "Placebo",
          "Drug B"
        ],
        "ACTARMCD": [
          "A",
          "P",
          "B"
        ],
        "ACTARM": [
          "Drug A",
          "Placebo",
          "Drug B"
        ],
        "ARMNRS": [
          "",
          "",
          ""
        ],
        "ACTARMUD": [
          "",
          "",
          ""
        ],
        "COUNTRY": [
          "USA",
          "CAN",
          "USA"
        ]
      }
    },
    {
      "filename": "ss.xpt",
      "label": "Subject Status",
      "domain": "SS",
      "variables": [
        {
          "name": "STUDYID",
          "label": "Study Identifier",
          "type": "Char",
          "length": 50
        },
        {
          "name": "DOMAIN",
          "label": "Domain Abbreviation",
          "type": "Char",
          "length": 50
        },
        {
          "name": "USUBJID",
          "label": "Unique Subject Identifier",
          "type": "Char",
          "length": 50
        },
        {
          "name": "SSSEQ",
          "label": "Sequence Number",
          "type": "Num",
          "length": 8
        },
        {
          "name": "SSTESTCD",
          "label": "Status Short Name",
          "type": "Char",
          "length": 50
        },
        {
          "name": "SSTEST",
          "label": "Status Name",
          "type": "Char",
          "length": 50
        },
        {
          "name": "SSORRES",
          "label": "Result or Finding Original Result",
          "type": "Char",
          "length": 50
        },
        {
          "name": "SSSTRESC",
          "label": "Character Result/Finding in Std Format",
          "type": "Char",
          "length": 50
        },
        {
          "name": "VISITNUM",
          "label": "Visit Number",
          "type": "Num",
          "length": 8
        },
        {
          "name": "VISIT",
          "label": "Visit Name",
          "type": "Char",
          "length": 50
        },
        {
          "name": "SSDTC",
          "label": "Date/Time of Assessment",
          "type": "Char",
          "length": 50
        }
      ],
      "records": {
        "STUDYID": [
          "CDISCPILOT01",
          "CDISCPILOT01",
          "CDISCPILOT01",
          "CDISCPILOT01",
          "CDISCPILOT01",
          "CDISCPILOT01"
        ],
        "DOMAIN": [
          "SS",
          "SS",
          "SS",
          "SS",
          "SS",
          "SS"
        ],
        "USUBJID": [
          "CDISC001",
          "CDISC001",
          "CDISC002",
          "CDISC002",
          "CDISC003",
          "CDISC003"
        ],
        "SSSEQ": [
          1,
          2,
          1,
          2,
          1,
          2
        ],
        "SSTESTCD": [
          "SURVSTAT",
          "SURVSTAT",
          "SURVSTAT",
          "SURVSTAT",
          "SURVSTAT",
          "SURVSTAT"
        ],
        "SSTEST": [
          "Survival Status",
          "Survival Status",
          "Survival Status",
          "Survival Status",
          "Survival Status",
          "Survival Status"
        ],
        "SSORRES": [
          "ALIVE",
          "DEAD",
          "ALIVE",
          "DEAD",
          "ALIVE",
          "DEAD"
        ],
        "SSSTRESC": [
          "ALIVE",
          "DEAD",
          "ALIVE",
          "DEAD",
          "ALIVE",
          "DEAD"
        ],
        "VISITNUM": [
          10,
          20,
          10,
          20,
          10,
          20
        ],
        "VISIT": [
          "MONTH 1",
          "MONTH 2",
          "MONTH 1",
          "MONTH 2",
          "MONTH 1",
          "MONTH 2"
        ],
        "SSDTC": [
          "2006-02-15",
          "2006-04-01",
          "2006-02-26",
          "2006-03-26",
          "2006-03-10",
          "2006-04-10"
        ]
      }
    }
  ],
  "codelists": []
}