{
    "rule": {
        "Authorities": [
            {
                "Organization": "CDISC",
                "Standards": [
                    {
                        "Name": "SDTMIG",
                        "References": [
                            {
                                "Citations": [
                                    {
                                        "Document": "IG v3.4",
                                        "Section": "4.4",
                                        "Cited_Guidance": "Timing variables (SDTM Table 2.2.5) are an essential component of all SDTM subject-level domain datasets. In general, all domains based on the three general observation classes should have at least one Timing variable. In the Events or Interventions general observation class, this could be the start date of the event or intervention. In the Findings observation class, where data are usually collected at multiple visits, at least one Timing variable must be used."
                                    }
                                ],
                                "Origin": "SDTM and SDTMIG Conformance Rules",
                                "Version": "2.0",
                                "Rule_Identifier": {
                                    "Id": "CG0219",
                                    "Version": "1"
                                }
                            }
                        ],
                        "Version": "3.4"
                    },
                    {
                        "Name": "SDTMIG",
                        "References": [
                            {
                                "Citations": [
                                    {
                                        "Document": "IG v3.2",
                                        "Section": "4.1.4",
                                        "Cited_Guidance": "In general, all domains based on the three general observation classes should have at least one Timing variable. in the Events or Interventions general observation class this could be the start date of the event or intervention. in the Findings observation class where data are usually collected at multiple visits, at least one Timing variable must be used."
                                    }
                                ],
                                "Origin": "SDTM and SDTMIG Conformance Rules",
                                "Version": "2.0",
                                "Rule_Identifier": {
                                    "Id": "CG0219",
                                    "Version": "1"
                                }
                            }
                        ],
                        "Version": "3.2"
                    },
                    {
                        "Name": "SDTMIG",
                        "References": [
                            {
                                "Citations": [
                                    {
                                        "Document": "IG v3.3",
                                        "Section": "4.4",
                                        "Cited_Guidance": "Timing variables (SDTM Table 2.2.5) are an essential component of all SDTM subject-level domain datasets. In general, all domains based on the three general observation classes should have at least one Timing variable. In the Events or Interventions general observation class, this could be the start date of the event or intervention. In the Findings observation class, where data are usually collected at multiple visits, at least one Timing variable must be used."
                                    }
                                ],
                                "Origin": "SDTM and SDTMIG Conformance Rules",
                                "Version": "2.0",
                                "Rule_Identifier": {
                                    "Id": "CG0219",
                                    "Version": "1"
                                }
                            }
                        ],
                        "Version": "3.3"
                    },
                    {
                        "Name": "SENDIG",
                        "References": [
                            {
                                "Citations": [
                                    {
                                        "Document": "SENDIG v3.0",
                                        "Item": "Text",
                                        "Section": "4.4.",
                                        "Cited_Guidance": "Timing variables (SDTM Table 2.2.5) are an essential    component of all SDTM subject-level domain datasets. In general, all domains based on the three general observation classes should have at least one Timing variable. In the Events or Interventions general observation class this could be the start date of the event or intervention. In the Findings observation class where data are usually collected at multiple study days, either --DTC or --DY must beused."
                                    }
                                ],
                                "Origin": "SEND Conformance Rules",
                                "Version": "5.0",
                                "Rule_Identifier": {
                                    "Id": "SEND65",
                                    "Version": "1"
                                }
                            }
                        ],
                        "Version": "3.0"
                    },
                    {
                        "Name": "SENDIG",
                        "References": [
                            {
                                "Citations": [
                                    {
                                        "Document": "SENDIG v3.1",
                                        "Item": "Text",
                                        "Section": "4.4.",
                                        "Cited_Guidance": "Timing variables (SDTM Table 2.2.5) are an essential component of all SDTM subject-level domain datasets. In general, all domains based on the three general observation classes should have at least one Timing variable. In the Events or Interventions general observation class this could be the start date of the event or intervention. In the Findings observation class where data are usually collected at multiple study days, either --DTC or --DY must be used."
                                    }
                                ],
                                "Origin": "SEND Conformance Rules",
                                "Version": "5.0",
                                "Rule_Identifier": {
                                    "Id": "SEND65",
                                    "Version": "1"
                                }
                            }
                        ],
                        "Version": "3.1"
                    },
                    {
                        "Name": "SENDIG",
                        "References": [
                            {
                                "Citations": [
                                    {
                                        "Document": "SENDIG v3.1.1",
                                        "Item": "Text",
                                        "Section": "4.4.",
                                        "Cited_Guidance": "Timing variables (SDTM Table 2.2.5) are an essential component of all SDTM subject-level domain datasets. In general, all domains based on the three general observation classes should have at least one Timing variable. In the Events or Interventions general observation class this could be the start date of the event or intervention. In the Findings observation class where data are usually collected at multiple study days, either --DTC or --DY must be used."
                                    }
                                ],
                                "Origin": "SEND Conformance Rules",
                                "Version": "5.0",
                                "Rule_Identifier": {
                                    "Id": "SEND65",
                                    "Version": "1"
                                }
                            }
                        ],
                        "Version": "3.1.1"
                    },
                    {
                        "Name": "SENDIG-DART",
                        "References": [
                            {
                                "Citations": [
                                    {
                                        "Document": "SENDIG v3.1",
                                        "Item": "Text",
                                        "Section": "4.4.",
                                        "Cited_Guidance": "Timing variables (SDTM Table 2.2.5) are an essential component of all SDTM subject-level domain datasets. In general, all domains based on the three general observation classes should have at least one Timing variable. In the Events or Interventions general observation class this could be the start date of the event or intervention. In the Findings observation class where data are usually collected at multiple study days, either --DTC or --DY must be used."
                                    }
                                ],
                                "Origin": "SEND Conformance Rules",
                                "Version": "5.0",
                                "Rule_Identifier": {
                                    "Id": "SEND65",
                                    "Version": "1"
                                }
                            }
                        ],
                        "Version": "1.1"
                    },
                    {
                        "Name": "SENDIG-DART",
                        "References": [
                            {
                                "Citations": [
                                    {
                                        "Document": "SENDIG v3.1.1",
                                        "Section": "4.4.",
                                        "Cited_Guidance": "Timing variables (SDTM Table 2.2.5) are an essential component of all SDTM subject-level domain datasets. In general, all domains based on the three general observation classes should have at least one Timing variable. In the Events or Interventions general observation class this could be the start date of the event or intervention. In the Findings observation class where data are usually collected at multiple study days, either --DTC or --DY must be used."
                                    }
                                ],
                                "Origin": "SEND Conformance Rules",
                                "Version": "5.0",
                                "Rule_Identifier": {
                                    "Id": "SEND65",
                                    "Version": "1"
                                }
                            }
                        ],
                        "Version": "1.2"
                    },
                    {
                        "Name": "SENDIG-GENETOX",
                        "References": [
                            {
                                "Citations": [
                                    {
                                        "Document": "SENDIG v3.1.1",
                                        "Item": "Text",
                                        "Section": "4.4.",
                                        "Cited_Guidance": "Timing variables (SDTM Table 2.2.5) are an essential component of all SDTM subject-level domain datasets. In general, all domains based on the three general observation classes should have at least one Timing variable. In the Events or Interventions general observation class this could be the start date of the event or intervention. In the Findings observation class where data are usually collected at multiple study days, either --DTC or --DY must be used."
                                    }
                                ],
                                "Origin": "SEND Conformance Rules",
                                "Version": "5.0",
                                "Rule_Identifier": {
                                    "Id": "SEND65",
                                    "Version": "1"
                                }
                            }
                        ],
                        "Version": "1.0"
                    },
                    {
                        "Name": "TIG",
                        "References": [
                            {
                                "Citations": [
                                    {
                                        "Document": "TIG v1.0",
                                        "Item": "4d",
                                        "Section": "2.8.3 How to Create New Specifications",
                                        "Cited_Guidance": "Include the applicable SDTM Timing variables. In general, the domain must have at least one timing variable."
                                    }
                                ],
                                "Origin": "TIG Conformance Rules",
                                "Version": "1.0",
                                "Rule_Identifier": {
                                    "Id": "TIG0266",
                                    "Version": "1"
                                }
                            }
                        ],
                        "Substandard": "SEND",
                        "Version": "1.0"
                    },
                    {
                        "Name": "TIG",
                        "References": [
                            {
                                "Citations": [
                                    {
                                        "Document": "TIG v1.0",
                                        "Item": "4d",
                                        "Section": "2.8.3",
                                        "Cited_Guidance": "Include the applicable SDTM Timing variables. In general, the domain must have at least one timing variable."
                                    }
                                ],
                                "Origin": "TIG Conformance Rules",
                                "Version": "1.0",
                                "Rule_Identifier": {
                                    "Id": "TIG0433",
                                    "Version": "1"
                                }
                            }
                        ],
                        "Substandard": "SDTM",
                        "Version": "1.0"
                    }
                ]
            }
        ],
        "Check": {
            "all": [
                {
                    "name": "$dataset_variables",
                    "operator": "shares_no_elements_with",
                    "value": "$timing_variables"
                }
            ]
        },
        "Core": {
            "Id": "CORE-000575",
            "Status": "Draft",
            "Version": "1"
        },
        "Description": "There must be at least one timing variable for any of the domains based on the three general observation classes",
        "Executability": "Partially Executable - Possible Underreporting",
        "Operations": [
            {
                "id": "$dataset_variables",
                "operator": "get_column_order_from_dataset"
            },
            {
                "id": "$timing_variables",
                "key_name": "role",
                "key_value": "Timing",
                "operator": "get_model_filtered_variables"
            }
        ],
        "Outcome": {
            "Message": "No timing variable is provided",
            "Output_Variables": [
                "$dataset_variables",
                "$timing_variables"
            ]
        },
        "Scope": {
            "Classes": {
                "Include": [
                    "FINDINGS",
                    "INTERVENTIONS",
                    "EVENTS"
                ]
            },
            "Domains": {
                "Exclude": [
                    "IE",
                    "SC"
                ]
            },
            "Use_Case": "NONCLIN, INDH"
        },
        "Sensitivity": "Dataset",
        "Rule_Type": "Variable Metadata Check"
    },
    "datasets": [
        {
            "filename": "ae.xpt",
            "label": "Adverse Events",
            "domain": "AE",
            "variables": [
                {
                    "name": "STUDYID",
                    "label": "Study Identifier",
                    "type": "Char",
                    "length": 50
                },
                {
                    "name": "DOMAIN",
                    "label": "Domain Abbreviation",
                    "type": "Char",
                    "length": 50
                },
                {
                    "name": "USUBJID",
                    "label": "Unique Subject Identifier",
                    "type": "Char",
                    "length": 50
                },
                {
                    "name": "AESEQ",
                    "label": "Sequence Number",
                    "type": "Num",
                    "length": 8
                },
                {
                    "name": "AETERM",
                    "label": "Reported Term for the Adverse Event",
                    "type": "Char",
                    "length": 50
                },
                {
                    "name": "AEMODIFY",
                    "label": "Modified Reported Term",
                    "type": "Char",
                    "length": 50
                },
                {
                    "name": "AEDECOD",
                    "label": "Dictionary-Derived Term",
                    "type": "Char",
                    "length": 50
                },
                {
                    "name": "AEBODSYS",
                    "label": "Body System or Organ Class",
                    "type": "Char",
                    "length": 50
                },
                {
                    "name": "AESEV",
                    "label": "Severity/Intensity",
                    "type": "Char",
                    "length": 50
                },
                {
                    "name": "AESER",
                    "label": "Serious Event",
                    "type": "Char",
                    "length": 50
                },
                {
                    "name": "AEACN",
                    "label": "Action Taken with Study Treatment",
                    "type": "Char",
                    "length": 50
                },
                {
                    "name": "AEREL",
                    "label": "Causality",
                    "type": "Char",
                    "length": 50
                },
                {
                    "name": "AEOUT",
                    "label": "Outcome of Adverse Event",
                    "type": "Char",
                    "length": 50
                },
                {
                    "name": "AESCONG",
                    "label": "Congenital Anomaly or Birth Defect",
                    "type": "Char",
                    "length": 50
                },
                {
                    "name": "AESDISAB",
                    "label": "Persist or Signif Disability/Incapacity",
                    "type": "Char",
                    "length": 50
                },
                {
                    "name": "AESDTH",
                    "label": "Results in Death",
                    "type": "Char",
                    "length": 50
                },
                {
                    "name": "AESHOSP",
                    "label": "Requires or Prolongs Hospitalization",
                    "type": "Char",
                    "length": 50
                },
                {
                    "name": "AESLIFE",
                    "label": "Is Life Threatening",
                    "type": "Char",
                    "length": 50
                },
                {
                    "name": "AEENRF",
                    "label": "End Relative to Reference Period",
                    "type": "Char",
                    "length": 50
                }
            ],
            "records": {
                "STUDYID": [
                    "TEST",
                    "TEST"
                ],
                "DOMAIN": [
                    "AE",
                    "AE"
                ],
                "USUBJID": [
                    "001",
                    "001"
                ],
                "AESEQ": [
                    2,
                    1
                ],
                "AETERM": [
                    "POUNDING HEADACHE",
                    "POUNDING HEADACHE"
                ],
                "AEMODIFY": [
                    "HEADACHE",
                    "HEADACHE"
                ],
                "AEDECOD": [
                    "Headache",
                    "Headache"
                ],
                "AEBODSYS": [
                    "Nervous system disorders",
                    "Nervous system disorders"
                ],
                "AESEV": [
                    "SEVERE",
                    "SEVERE"
                ],
                "AESER": [
                    "N",
                    "N"
                ],
                "AEACN": [
                    "NOT APPLICABLE",
                    "NOT APPLICABLE"
                ],
                "AEREL": [
                    "DEFINITELY NOT RELATED",
                    "DEFINITELY NOT RELATED"
                ],
                "AEOUT": [
                    "RECOVERED/RESOLVED",
                    "RECOVERED/RESOLVED"
                ],
                "AESCONG": [
                    "",
                    ""
                ],
                "AESDISAB": [
                    "",
                    ""
                ],
                "AESDTH": [
                    "",
                    ""
                ],
                "AESHOSP": [
                    "",
                    ""
                ],
                "AESLIFE": [
                    "",
                    ""
                ],
                "AEENRF": [
                    "",
                    ""
                ]
            }
        },
        {
            "filename": "lb.xpt",
            "label": "Laboratory Test Results",
            "domain": "LB",
            "variables": [
                {
                    "name": "STUDYID",
                    "label": "Study Identifier",
                    "type": "Char",
                    "length": 50
                },
                {
                    "name": "DOMAIN",
                    "label": "Domain Abbreviation",
                    "type": "Char",
                    "length": 50
                },
                {
                    "name": "USUBJID",
                    "label": "Unique Subject Identifier",
                    "type": "Char",
                    "length": 50
                },
                {
                    "name": "LBSEQ",
                    "label": "Sequence Number",
                    "type": "Num",
                    "length": 8
                },
                {
                    "name": "LBGRPID",
                    "label": "Group ID",
                    "type": "Char",
                    "length": 50
                },
                {
                    "name": "LBTESTCD",
                    "label": "Lab Test or Examination Short Name",
                    "type": "Char",
                    "length": 50
                },
                {
                    "name": "LBTEST",
                    "label": "Lab Test or Examination Name",
                    "type": "Char",
                    "length": 50
                },
                {
                    "name": "LBTSTCND",
                    "label": "Test Condition",
                    "type": "Char",
                    "length": 50
                },
                {
                    "name": "LBCAT",
                    "label": "Category for Lab Test",
                    "type": "Char",
                    "length": 50
                },
                {
                    "name": "LBSCAT",
                    "label": "Subcategory for Lab Test",
                    "type": "Char",
                    "length": 50
                },
                {
                    "name": "LBORRES",
                    "label": "Result or Finding in Original Units",
                    "type": "Char",
                    "length": 50
                },
                {
                    "name": "LBORRESU",
                    "label": "Original Units",
                    "type": "Char",
                    "length": 50
                },
                {
                    "name": "LBRESSCL",
                    "label": "Result Scale",
                    "type": "Char",
                    "length": 50
                },
                {
                    "name": "LBRESTYP",
                    "label": "Result Type",
                    "type": "Char",
                    "length": 50
                },
                {
                    "name": "LBCOLSRT",
                    "label": "Collected Summary Result Type",
                    "type": "Char",
                    "length": 50
                },
                {
                    "name": "LBORNRLO",
                    "label": "Reference Range Lower Limit in Orig Unit",
                    "type": "Char",
                    "length": 50
                },
                {
                    "name": "LBORNRHI",
                    "label": "Reference Range Upper Limit in Orig Unit",
                    "type": "Char",
                    "length": 50
                },
                {
                    "name": "LBLLOD",
                    "label": "Lower Limit of Detection",
                    "type": "Char",
                    "length": 50
                },
                {
                    "name": "LBSTRESC",
                    "label": "Character Result/Finding in Std Format",
                    "type": "Char",
                    "length": 50
                },
                {
                    "name": "LBSTRESN",
                    "label": "Numeric Result/Finding in Standard Units",
                    "type": "Num",
                    "length": 8
                },
                {
                    "name": "LBSTRESU",
                    "label": "Standard Units",
                    "type": "Char",
                    "length": 50
                },
                {
                    "name": "LBSTNRLO",
                    "label": "Reference Range Lower Limit-Std Units",
                    "type": "Num",
                    "length": 8
                },
                {
                    "name": "LBSTNRHI",
                    "label": "Reference Range Upper Limit-Std Units",
                    "type": "Num",
                    "length": 8
                },
                {
                    "name": "LBSTNRC",
                    "label": "Reference Range for Char Rslt-Std Units",
                    "type": "Char",
                    "length": 50
                },
                {
                    "name": "LBNRIND",
                    "label": "Reference Range Indicator",
                    "type": "Char",
                    "length": 50
                },
                {
                    "name": "LBSTAT",
                    "label": "Completion Status",
                    "type": "Char",
                    "length": 50
                },
                {
                    "name": "LBREASND",
                    "label": "Reason Test Not Done",
                    "type": "Char",
                    "length": 50
                },
                {
                    "name": "LBLOINC",
                    "label": "LOINC Code",
                    "type": "Char",
                    "length": 50
                },
                {
                    "name": "LBSPEC",
                    "label": "Specimen Type",
                    "type": "Char",
                    "length": 50
                },
                {
                    "name": "LBMETHOD",
                    "label": "Method of Test or Examination",
                    "type": "Char",
                    "length": 50
                },
                {
                    "name": "LBTMTHSN",
                    "label": "Test Method Sensitivity",
                    "type": "Char",
                    "length": 50
                },
                {
                    "name": "LBLOBXFL",
                    "label": "Last Observation Before Exposure Flag",
                    "type": "Char",
                    "length": 50
                },
                {
                    "name": "LBFAST",
                    "label": "Fasting Status",
                    "type": "Char",
                    "length": 50
                },
                {
                    "name": "LBDRVFL",
                    "label": "Derived Flag",
                    "type": "Char",
                    "length": 50
                },
                {
                    "name": "LBCLSIG",
                    "label": "Clinically Significant, Collected",
                    "type": "Char",
                    "length": 50
                },
                {
                    "name": "LBPDUR",
                    "label": "Planned Duration",
                    "type": "Char",
                    "length": 50
                }
            ],
            "records": {
                "STUDYID": [
                    "ABC123",
                    "ABC123",
                    "ABC123",
                    "ABC123",
                    "ABC123",
                    "ABC123"
                ],
                "DOMAIN": [
                    "LB",
                    "LB",
                    "LB",
                    "LB",
                    "LB",
                    "LB"
                ],
                "USUBJID": [
                    "ABC12301001",
                    "ABC12301001",
                    "ABC12301001",
                    "ABC12301001",
                    "ABC12301001",
                    "ABC12301001"
                ],
                "LBSEQ": [
                    1,
                    2,
                    3,
                    4,
                    5,
                    6
                ],
                "LBGRPID": [
                    "",
                    "A",
                    "A",
                    "A",
                    "A",
                    ""
                ],
                "LBTESTCD": [
                    "ALB",
                    "ALP",
                    "ALP",
                    "ALP",
                    "ALP",
                    "CRP"
                ],
                "LBTEST": [
                    "Albumin",
                    "Alkaline Phosphatase",
                    "Alkaline Phosphatase",
                    "Alkaline Phosphatase",
                    "Alkaline Phosphatase",
                    "C Reactive Protein"
                ],
                "LBTSTCND": [
                    "",
                    "",
                    "",
                    "",
                    "",
                    ""
                ],
                "LBCAT": [
                    "CHEMISTRY",
                    "CHEMISTRY",
                    "CHEMISTRY",
                    "CHEMISTRY",
                    "CHEMISTRY",
                    "CHEMISTRY"
                ],
                "LBSCAT": [
                    "",
                    "",
                    "",
                    "",
                    "",
                    ""
                ],
                "LBORRES": [
                    "30",
                    "398",
                    "350",
                    "",
                    "",
                    "2.5"
                ],
                "LBORRESU": [
                    "g/L",
                    "IU/L",
                    "IU/L",
                    "",
                    "",
                    "mg/L"
                ],
                "LBRESSCL": [
                    "QUANTITATIVE",
                    "QUANTITATIVE",
                    "QUANTITATIVE",
                    "QUANTITATIVE",
                    "QUANTITATIVE",
                    "QUANTITATIVE"
                ],
                "LBRESTYP": [
                    "MASS CONCENTRATION",
                    "CATALYTIC CONCENTRATION",
                    "CATALYTIC CONCENTRATION",
                    "CATALYTIC CONCENTRATION",
                    "CATALYTIC CONCENTRATION",
                    "MASS CONCENTRATION"
                ],
                "LBCOLSRT": [
                    "",
                    "",
                    "",
                    "MEAN, ARITHMETIC",
                    "",
                    ""
                ],
                "LBORNRLO": [
                    "35",
                    "40",
                    "40",
                    "",
                    "",
                    "0.5"
                ],
                "LBORNRHI": [
                    "50",
                    "160",
                    "160",
                    "",
                    "",
                    "10"
                ],
                "LBLLOD": [
                    "",
                    "",
                    "",
                    "",
                    "",
                    ""
                ],
                "LBSTRESC": [
                    "3",
                    "398",
                    "350",
                    "374",
                    "398",
                    "2.5"
                ],
                "LBSTRESN": [
                    3,
                    398,
                    350,
                    374,
                    398,
                    2.5
                ],
                "LBSTRESU": [
                    "g/dL",
                    "IU/L",
                    "IU/L",
                    "IU/L",
                    "IU/L",
                    "mg/L"
                ],
                "LBSTNRLO": [
                    3.5,
                    40,
                    40,
                    40,
                    40,
                    0.5
                ],
                "LBSTNRHI": [
                    5,
                    160,
                    160,
                    160,
                    160,
                    10
                ],
                "LBSTNRC": [
                    "",
                    "",
                    "",
                    "",
                    "",
                    ""
                ],
                "LBNRIND": [
                    "LOW",
                    "",
                    "",
                    "",
                    "",
                    ""
                ],
                "LBSTAT": [
                    "",
                    "",
                    "",
                    "",
                    "",
                    ""
                ],
                "LBREASND": [
                    "",
                    "",
                    "",
                    "",
                    "",
                    ""
                ],
                "LBLOINC": [
                    "2862-1",
                    "6768-6",
                    "6768-6",
                    "",
                    "",
                    "30522-7"
                ],
                "LBSPEC": [
                    "SERUM",
                    "SERUM",
                    "SERUM",
                    "SERUM",
                    "SERUM",
                    "SERUM"
                ],
                "LBMETHOD": [
                    "ELECTROPHORESIS",
                    "",
                    "",
                    "",
                    "",
                    ""
                ],
                "LBTMTHSN": [
                    "",
                    "",
                    "",
                    "",
                    "",
                    "HIGH SENSITIVITY"
                ],
                "LBLOBXFL": [
                    "Y",
                    "",
                    "Y",
                    "",
                    "",
                    "Y"
                ],
                "LBFAST": [
                    "Y",
                    "Y",
                    "Y",
                    "Y",
                    "Y",
                    "Y"
                ],
                "LBDRVFL": [
                    "",
                    "",
                    "",
                    "",
                    "Y",
                    ""
                ],
                "LBCLSIG": [
                    "N",
                    "",
                    "",
                    "",
                    "",
                    ""
                ],
                "LBPDUR": [
                    "",
                    "",
                    "",
                    "",
                    "",
                    ""
                ]
            }
        },
        {
            "filename": "ec.xpt",
            "label": "Exposure as Collected",
            "domain": "EC",
            "variables": [
                {
                    "name": "STUDYID",
                    "label": "Study Identifier",
                    "type": "Char",
                    "length": 50
                },
                {
                    "name": "DOMAIN",
                    "label": "Domain Abbreviation",
                    "type": "Char",
                    "length": 50
                },
                {
                    "name": "USUBJID",
                    "label": "Unique Subject Identifier",
                    "type": "Char",
                    "length": 50
                },
                {
                    "name": "SPDEVID",
                    "label": "Sponsor Device Identifier",
                    "type": "Char",
                    "length": 200
                },
                {
                    "name": "ECSEQ",
                    "label": "Sequence Number",
                    "type": "Num",
                    "length": 8
                },
                {
                    "name": "ECTRT",
                    "label": "Name of Treatment",
                    "type": "Char",
                    "length": 50
                },
                {
                    "name": "ECPRESP",
                    "label": "Pre-Specified",
                    "type": "Char",
                    "length": 50
                },
                {
                    "name": "ECOCCUR",
                    "label": "Occurrence",
                    "type": "Char",
                    "length": 50
                },
                {
                    "name": "ECDOSE",
                    "label": "Dose",
                    "type": "Num",
                    "length": 8
                },
                {
                    "name": "ECDOSU",
                    "label": "Dose Units",
                    "type": "Char",
                    "length": 50
                },
                {
                    "name": "ECDOSFRM",
                    "label": "Dose Form",
                    "type": "Char",
                    "length": 50
                },
                {
                    "name": "ECDOSFRQ",
                    "label": "Dosing Frequency per Interval",
                    "type": "Char",
                    "length": 50
                },
                {
                    "name": "ECROUTE",
                    "label": "Route of Administration",
                    "type": "Char",
                    "length": 50
                },
                {
                    "name": "ECLOT",
                    "label": "Lot Number",
                    "type": "Char",
                    "length": 50
                },
                {
                    "name": "ECPSTRG",
                    "label": "Pharmaceutical Strength",
                    "type": "Num",
                    "length": 8
                },
                {
                    "name": "ECPSTRGU",
                    "label": "Pharmaceutical Strength Units",
                    "type": "Char",
                    "length": 50
                },
                {
                    "name": "EPOCH",
                    "label": "Epoch",
                    "type": "Char",
                    "length": 50
                }
            ],
            "records": {
                "STUDYID": [
                    "CDISCPILOT01",
                    "CDISCPILOT01",
                    "CDISCPILOT01"
                ],
                "DOMAIN": [
                    "EC",
                    "EC",
                    "EC"
                ],
                "USUBJID": [
                    "CDISC001",
                    "CDISC001",
                    "CDISC001"
                ],
                "SPDEVID": [
                    "DEV0001",
                    "DEV0001",
                    "DEV0001"
                ],
                "ECSEQ": [
                    1,
                    2,
                    3
                ],
                "ECTRT": [
                    "ZANOMALINE",
                    "MULTIPLE",
                    "OTHERZ"
                ],
                "ECPRESP": [
                    "Y",
                    "Y",
                    "Y"
                ],
                "ECOCCUR": [
                    "Y",
                    "Y",
                    "Y"
                ],
                "ECDOSE": [
                    5,
                    5,
                    5
                ],
                "ECDOSU": [
                    "mL",
                    "mL",
                    "mL"
                ],
                "ECDOSFRM": [
                    "INJECTION",
                    "INJECTION",
                    "INJECTION"
                ],
                "ECDOSFRQ": [
                    "QD",
                    "QD",
                    "QD"
                ],
                "ECROUTE": [
                    "SUBCUTANEOUS",
                    "SUBCUTANEOUS",
                    "SUBCUTANEOUS"
                ],
                "ECLOT": [
                    "SDS580-359",
                    "SDS580-359",
                    "SDS580-359"
                ],
                "ECPSTRG": [
                    10.8,
                    10.8,
                    10.8
                ],
                "ECPSTRGU": [
                    "g/L",
                    "g/L",
                    "g/L"
                ],
                "EPOCH": [
                    "TREATMENT",
                    "TREATMENT",
                    "TREATMENT"
                ]
            }
        },
        {
            "filename": "ie.xpt",
            "label": "Inclusion/Exclusion Criteria Not Met",
            "domain": "IE",
            "variables": [
                {
                    "name": "STUDYID",
                    "label": "Study Identifier",
                    "type": "Char",
                    "length": 12
                },
                {
                    "name": "DOMAIN",
                    "label": "Domain Abbreviation",
                    "type": "Char",
                    "length": 2
                },
                {
                    "name": "IETESTCD",
                    "label": "Incl/Excl Criterion Short Name",
                    "type": "Char",
                    "length": 7
                },
                {
                    "name": "IETEST",
                    "label": "Inclusion/Exclusion Criterion",
                    "type": "Char",
                    "length": 196
                },
                {
                    "name": "IECAT",
                    "label": "Inclusion/Exclusion Category",
                    "type": "Char",
                    "length": 9
                },
                {
                    "name": "TIVERS",
                    "label": "Protocol Criteria Versions",
                    "type": "Char",
                    "length": 200
                }
            ],
            "records": {
                "STUDYID": [
                    "CDISCPILOT01",
                    "CDISCPILOT01",
                    "CDISCPILOT01",
                    "CDISCPILOT01",
                    "CDISCPILOT01",
                    "CDISCPILOT01",
                    "CDISCPILOT01",
                    "CDISCPILOT01"
                ],
                "DOMAIN": [
                    "IE",
                    "IE",
                    "IE",
                    "IE",
                    "IE",
                    "IE",
                    "IE",
                    "IE"
                ],
                "IETESTCD": [
                    "INCL01",
                    "INCL02",
                    "INCL03",
                    "INCL04",
                    "INCL05",
                    "EXCL01",
                    "EXCL02",
                    "EXCL03"
                ],
                "IETEST": [
                    "Males and postmenopausal females at least 50 years of age.",
                    "Diagnosis of probable AD as defined by NINCDS and the ADRDA guidelines.",
                    "MMSE score of 10 to 23.",
                    "Modified Hachinski Ischemic Scale score of <= 4.",
                    "CNS imaging (CT scan or MRI of brain) compatible with AD within past 1 year. (See Protocol for incompatible findings.)",
                    "Serious illness which required hospitalization within 3 months of screening.",
                    "Diagnosis of serious neurological conditions (See Protocol)",
                    "Episode of depression meeting DSM-IV criteria within 3 months of screening."
                ],
                "IECAT": [
                    "INCLUSION",
                    "INCLUSION",
                    "INCLUSION",
                    "INCLUSION",
                    "INCLUSION",
                    "EXCLUSION",
                    "EXCLUSION",
                    "EXCLUSION"
                ],
                "TIVERS": [
                    "ORIGINAL",
                    "ORIGINAL",
                    "ORIGINAL",
                    "ORIGINAL",
                    "ORIGINAL",
                    "ORIGINAL",
                    "ORIGINAL",
                    "ORIGINAL"
                ]
            }
        }
    ],
    "standard": {
        "product": "sdtmig",
        "version": "3-4"
    },
    "codelists": []
}