STUDYID,DOMAIN,USUBJID,SUBJID,RFSTDTC,RFENDTC,RFXSTDTC,RFXENDTC,RFCSTDTC,RFCENDTC,RFICDTC,RFPENDTC,DTHDTC,DTHFL,SITEID,INVID,INVNAM,BRTHDTC,AGE,AGEU,SEX,RACE,ETHNIC,ARMCD,ARM,ACTARMCD,ACTARM,ARMNRS,ACTARMUD,COUNTRY,DMDTC,DMDY
TEST-1,DM,001,001,2022-03-20,,,,,,,,,,,,,2008-12-01,14,YEARS,,,,,,,,,,,,
TEST-1,DM,002,002,2022-03-20,,,,,,,,,,,,,,5,YEARS,,,,,,,,,,,,
TEST-1,DM,003,003,2022-03-25,,,,,,,,,,,,,,88,MINUTES,,,,,,,,,,,,
TEST-1,DM,004,004,2022-03-26,,,,,,,,,,,,,,45,WEEKS,,,,,,,,,,,,
