STUDYID,DOMAIN,USUBJID,MHSEQ,MHTERM,MHEVDTYP,MHSTDTC,MHSTDY,MHENDTC,MHENDY,MHENRTPT,MHENTPT
CDISCPILOT01,MH,CDISC009,1,ALZHEIMER'S DISEASE,SYMPTOM ONSET,2008-09-02,-1511,,,ONGOING,2021-05-04
CDISCPILOT01,MH,CDISC010,1,ALZHEIMER'S DISEASE,SYMPTOM ONSET,2012-09-08,-378,,,ONGOING,2021-05-05
CDISCPILOT01,MH,CDISC011,1,ALZHEIMER'S DISEASE,SYMPTOM ONSET,2002-12-01,-3659,,,ONGOING,2021-05-06
CDISCPILOT01,MH,CDISC012,1,ALZHEIMER'S DISEASE,SYMPTOM ONSET,2009-03-16,-1632,,,,
CDISCPILOT01,MH,CDISC013,1,ALZHEIMER'S DISEASE,SYMPTOM ONSET,2011-07-19,-734,,,ONGOING,2013-10-24
CDISCPILOT01,MH,CDISC014,1,ALZHEIMER'S DISEASE,SYMPTOM ONSET,2011-07-25,-618,2011-07-26,-617,,
CDISCPILOT01,MH,CDISC016,1,ALZHEIMER'S DISEASE,SYMPTOM ONSET,2011-04-29,-705,2011-04-29,-705,,2018-05-12
CDISCPILOT01,MH,CDISC017,1,ALZHEIMER'S DISEASE,SYMPTOM ONSET,2008-08-20,-1858,2008-08-20,-1858,,
CDISCPILOT01,MH,CDISC018,1,ALZHEIMER'S DISEASE,SYMPTOM ONSET,2010-05-03,-959,2010-05-03,-959,,
