STUDYID,DOMAIN,USUBJID,LBSEQ,LBTESTCD,LBTEST,LBCAT,LBORRES,LBORRESU,LBORNRLO,LBORNRHI,LBSTRESC,LBSTRESN,LBSTRESU,LBSTNRLO,LBSTNRHI,LBNRIND,LBLOBXFL,VISITNUM,VISIT,EPOCH,LBDTC,LBDY
CDISCPILOT01,LB,CDISC002,70,URATE,Urate,CHEMISTRY,5.0,mg/dL,2.5,7.5,297.4,297.4,umol/L,149,446,NORMAL,,4,WEEK 2,TREATMENT,2012-11-28T10:00,14
CDISCPILOT01,LB,CDISC002,71,UROBIL,Urobilinogen,URINALYSIS,0,,,,0,0,,,,NORMAL,,4,WEEK 2,TREATMENT,2012-11-28T10:00,14
CDISCPILOT01,LB,CDISC002,72,WBC,Leukocytes,Laboratory Results,8.17,10^9/L,3.8,10.7,8.17,8.17,10^9/L,3.8,10.7,NORMAL,,4,WEEK 2,TREATMENT,2012-11-28T10:00,14
CDISCPILOT01,LB,CDISC002,73,ALB,Albumin,CHEMISTRY,3.6,g/dL,3.5,4.6,36,36,g/L,35,46,NORMAL,,5,WEEK 4,TREATMENT,2012-12-11T12:16,27
CDISCPILOT01,LB,CDISC002,74,ALP,Alkaline Phosphatase,CHEMISTRY,136,U/L,35,115,136,136,U/L,35,115,HIGH,,5,WEEK 4,TREATMENT,2012-12-11T12:16,27
CDISCPILOT01,LB,CDISC002,75,ALT,Alanine Aminotransferase,LB,14,U/L,6,32,14,14,U/L,6,32,NORMAL,,5,WEEK 4,TREATMENT,2012-12-11T12:16,27
CDISCPILOT01,LB,CDISC002,76,AST,Aspartate Aminotransferase,CHEMISTRY,15,U/L,9,34,15,15,U/L,9,34,NORMAL,,5,WEEK 4,TREATMENT,2012-12-11T12:16,27
CDISCPILOT01,LB,CDISC002,77,BASO,Basophils,HEMATOLOGY,0.04,10^9/L,0,0.2,0.04,0.03999999999999999,10^9/L,0,0.2,NORMAL,,5,WEEK 4,TREATMENT,2012-12-11T12:16,27
CDISCPILOT01,LB,CDISC002,78,BILI,Bilirubin,CHEMISTRY,0.9,mg/dL,0.2,1.2,15.39,15.39,umol/L,3,21,NORMAL,,5,WEEK 4,TREATMENT,2012-12-11T12:16,27
CDISCPILOT01,LB,CDISC002,79,UREAN,Urea Nitrogen,CHEMISTRY,21,mg/dL,4,24,7.497,7.497,mmol/L,1.4,8.6,NORMAL,,5,WEEK 4,TREATMENT,2012-12-11T12:16,27
