STUDYID,DOMAIN,RDOMAIN,USUBJID,COSEQ,IDVAR,IDVARVAL,COREF,COVAL,COEVAL,COEVALID,CODTC,CODY
CDISC-PILOT-01,CO,LB,S001,1,LBGRPID,20,,test comment,,,,
CDISC-PILOT-02,CO,LB,S002,2,LBSEQ,321,,test comment,,,,
