STUDYID,DOMAIN,USUBJID,LBSEQ,LBGRPID,LBREFID,LBSPID,LBTESTCD,LBTEST,LBTSTCND,LBBDAGNT,LBTSTOPO,LBCAT,LBSCAT,LBORRES,LBORRESU,LBRESSCL,LBRESTYP,LBCOLSRT,LBORNRLO,LBORNRHI,LBLLOD,LBSTRESC,LBSTRESN,LBSTRESU,LBSTNRLO,LBSTNRHI,LBSTNRC,LBNRIND,LBSTAT,LBREASND,LBNAM,LBLOINC,LBSPEC,LBSPCCND,LBSPCUFL,LBMETHOD,LBANMETH,LBTMTHSN,LBLOBXFL,LBBLFL,LBFAST,LBDRVFL,LBTOX,LBTOXGR,LBCLSIG,VISITNUM,VISIT,VISITDY,TAETORD,EPOCH,LBDTC,LBENDTC,LBDY,LBENDY,LBTPT,LBTPTNUM,LBELTM,LBTPTREF,LBRFTDTC,LBPTFL,LBPDUR
CDISC-PILOT-01,LB,S001,320,20,,,,,,,,,,,,,,,,,,,,,,,,,,,,,,,,,,,,,,,,,,,,,,,,,,,,,,,,,
CDISC-PILOT-02,LB,S002,321,30,,,,,,,,,,,,,,,,,,,,,,,,,,,,,,,,,,,,,,,,,,,,,,,,,,,,,,,,,
