STUDYID,DOMAIN,USUBJID,MHSEQ,MHTERM,MHPRESP,MHOCCUR
CDISCPILOT01,MH,CDISC001,1,ASTHMA,Y,N
CDISCPILOT01,MH,CDISC001,2,CONGESTIVE HEART FAILURE,Y,Y
CDISCPILOT01,MH,CDISC001,3,BROKEN LEG,Y,N
CDISCPILOT01,MH,CDISC002,1,HEADACHES,,
