STUDYID,DOMAIN,USUBJID,SPDEVID,ECSEQ,ECTRT,ECPRESP,ECOCCUR,ECSTAT,ECDOSE,ECDOSU,ECDOSFRM,ECDOSFRQ,ECROUTE,ECLOT,ECPSTRG,ECPSTRGU,EPOCH,ECSTDTC,ECENDTC,ECSTDY,ECENDY
CDISCPILOT01,EC,CDISC001,DEV0001,1,ZANOMALINE,Y,Y,,8,mL,INJECTION,QD,SUBCUTANEOUS,SDS580-359,10,g/L,TREATMENT,2012-11-30,2012-11-30,1,1
CDISCPILOT01,EC,CDISC001,DEV0001,2,ZANOMALINE,Y,Y,,1,mL,INJECTION,QD,SUBCUTANEOUS,SDS580-359,10,g/L,TREATMENT,2012-12-01,2012-12-01,2,2
CDISCPILOT01,EC,CDISC001,DEV0001,3,ZANOMALINE,Y,Y,,2,mL,INJECTION,QD,SUBCUTANEOUS,SDS580-359,10,g/L,TREATMENT,2012-12-02,2012-12-02,3,3
CDISCPILOT01,EC,CDISC001,DEV0001,27,ZANOMALINE,Y,Y,,5,mL,INJECTION,QD,SUBCUTANEOUS,SDS580-359,10,g/L,TREATMENT,2012-12-26,2012-12-26,27,27
CDISCPILOT01,EC,CDISC001,DEV0001,28,ZANOMALINE,Y,Y,,5,mL,INJECTION,QD,SUBCUTANEOUS,SDS580-359,10,g/L,TREATMENT,2012-12-27,2012-12-27,28,28
CDISCPILOT01,EC,CDISC001,DEV0001,29,ZANOMALINE,Y,Y,,5,mL,INJECTION,QD,SUBCUTANEOUS,SDS580-359,10,g/L,TREATMENT,2012-12-28,2012-12-28,29,29
CDISCPILOT01,EC,CDISC001,DEV0001,30,ZANOMALINE,Y,Y,,5,mL,INJECTION,QD,SUBCUTANEOUS,SDS580-359,10,g/L,TREATMENT,2012-12-29,2012-12-29,30,30
CDISCPILOT01,EC,CDISC001,DEV0001,31,ZANOMALINE,Y,N,,0,mL,INJECTION,QD,SUBCUTANEOUS,SDS580-359,10,g/L,TREATMENT,2012-12-30,2012-12-30,31,31
CDISCPILOT01,EC,CDISC008,DEV0008,120,PLACEBO,Y,Y,,3,mL,INJECTION,QD,SUBCUTANEOUS,SDS580-926,0,g/L,TREATMENT,2014-09-07,2014-09-07,120,120
CDISCPILOT01,EC,CDISC008,DEV0008,121,PLACEBO,Y,Y,,4,mL,INJECTION,QD,SUBCUTANEOUS,SDS580-926,0,g/L,TREATMENT,2014-09-08,2014-09-08,121,121
CDISCPILOT01,EC,CDISC008,DEV0008,122,PLACEBO,Y,Y,,5,mL,INJECTION,QD,SUBCUTANEOUS,SDS580-926,0,g/L,TREATMENT,2014-09-09,2014-09-09,122,122
CDISCPILOT01,EC,CDISC008,DEV0008,123,PLACEBO,Y,N,,-100,mL,INJECTION,QD,SUBCUTANEOUS,SDS580-926,0,g/L,TREATMENT,2014-09-10,2014-09-10,123,123
CDISCPILOT01,EC,CDISC008,DEV0008,124,PLACEBO,Y,N,,,mL,INJECTION,QD,SUBCUTANEOUS,SDS580-926,0,g/L,TREATMENT,2014-09-11,2014-09-11,124,124
CDISCPILOT01,EC,CDISC008,DEV0008,125,PLACEBO,Y,Y,,,mL,INJECTION,QD,SUBCUTANEOUS,SDS580-926,0,g/L,TREATMENT,2014-09-12,2014-09-12,125,125
CDISCPILOT01,EC,CDISC008,DEV0008,126,PLACEBO,Y,Y,,7,mL,INJECTION,QD,SUBCUTANEOUS,SDS580-926,0,g/L,TREATMENT,2014-09-13,2014-09-13,126,126
CDISCPILOT01,EC,CDISC008,DEV0008,127,PLACEBO,Y,Y,,0.1,mL,INJECTION,QD,SUBCUTANEOUS,SDS580-926,0,g/L,TREATMENT,2014-09-14,2014-09-14,127,127
CDISCPILOT01,EC,CDISC008,DEV0008,128,PLACEBO,Y,Y,,5,mL,INJECTION,QD,SUBCUTANEOUS,SDS580-926,0,g/L,TREATMENT,2014-09-15,2014-09-15,128,128
CDISCPILOT01,EC,CDISC008,DEV0008,129,PLACEBO,Y,Y,NOT DONE,0,mL,INJECTION,QD,SUBCUTANEOUS,SDS580-926,0,g/L,TREATMENT,2014-09-16,2014-09-16,129,129
