STUDYID,DOMAIN,USUBJID,LBSEQ,LBSPID,LBTESTCD,LBTEST,LBCAT,LBORRES,LBORRESU,LBORNRLO,LBORNRHI,LBSTRESC,LBSTRESN,LBSTRESU,LBSTNRLO,LBSTNRHI,LBNRIND,LBLOINC,LBSPEC,LBLOBXFL,LBBLFL,VISITNUM,VISIT,EPOCH,LBDTC,LBDY
ABC123,LB,123101,1,46,ALB,Albumin,BIOCHEMISTRY,4.46,g/dL,,,4.46,4.46,g/dL,,,,1751-7,SERUM,,,100,VISIT 1 (WEEK -2),SCREENING,2005-09-28 00:00:00,-15
ABC123,LB,123101,2,37,ALB,Albumin,BIOCHEMISTRY,4.31,g/dL,,,4.31,4.31,g/dL,,,,1751-7,SERUM,,,200,VISIT 2 (WEEK 0),TREATMENT,2005-10-13 00:00:00,1
ABC123,LB,123101,3,21,ALB,Albumin,BIOCHEMISTRY,3.62,g/dL,,,3.62,3.62,g/dL,,,,1751-7,SERUM,,,2200,VISIT 22 (WEEK 20),TREATMENT,2006-03-02 00:00:00,141
ABC123,LB,123101,4,11,ALB,Albumin,BIOCHEMISTRY,4.17,g/dL,,,4.17,4.17,g/dL,,,,1751-7,SERUM,,,2900,END OF TRIAL,FOLLOW-UP,2006-05-13 00:00:00,213
ABC123,LB,123101,5,43,ALT,Alanine Aminotransferase,BIOCHEMISTRY,14.99,U/L,,,14.99,14.99,U/L,,,,1742-6,SERUM,,,100,VISIT 1 (WEEK -2),SCREENING,2005-09-28 00:00:00,-15
ABC123,LB,123101,6,34,ALT,Alanine Aminotransferase,BIOCHEMISTRY,38.09,U/L,,,38.09,38.09,U/L,,,,1742-6,SERUM,,,200,VISIT 2 (WEEK 0),TREATMENT,2005-10-13 00:00:00,1
ABC123,LB,123101,7,18,ALT,Alanine Aminotransferase,BIOCHEMISTRY,12.98,U/L,,,12.98,12.98,U/L,,,,1742-6,SERUM,,,2200,VISIT 22 (WEEK 20),TREATMENT,2006-03-02 00:00:00,141
ABC123,LB,123101,8,8,ALT,Alanine Aminotransferase,BIOCHEMISTRY,15.6,U/L,,,15.6,15.6,U/L,,,,1742-6,SERUM,,,2900,END OF TRIAL,FOLLOW-UP,2006-05-13 00:00:00,213
ABC123,LB,123101,9,39,CHOL,Cholesterol,LIPIDS,5.25,mmol/L,,,5.25,5.25,mmol/L,,,,2093-3,SERUM,,,100,VISIT 1 (WEEK -2),SCREENING,2005-09-28 00:00:00,-15
ABC123,LB,123101,10,30,CHOL,Cholesterol,LIPIDS,2.93,mmol/L,,,2.93,2.93,mmol/L,,,,2093-3,SERUM,,,200,VISIT 2 (WEEK 0),TREATMENT,2005-10-13 00:00:00,1
ABC123,LB,123101,11,14,CHOL,Cholesterol,LIPIDS,6.13,mmol/L,,,6.13,6.13,mmol/L,,,,2093-3,SERUM,,,2200,VISIT 22 (WEEK 20),TREATMENT,2006-03-02 00:00:00,141
ABC123,LB,123101,12,4,CHOL,Cholesterol,LIPIDS,2.32,mmol/L,,,2.32,2.32,mmol/L,,,,2093-3,SERUM,,,2900,END OF TRIAL,FOLLOW-UP,2006-05-13 00:00:00,213
