dataset,variable,label,type,length
dm.xpt,STUDYID,Study Identifier,Char,12
dm.xpt,DOMAIN,Domain Abbreviation,Char,2
dm.xpt,USUBJID,Unique Subject Identifier,Char,8
dm.xpt,SUBJID,Subject Identifier for the Study,Char,4
dm.xpt,RFSTDTC,Subject Reference Start Date/Time,Char,10
dm.xpt,RFENDTC,Subject Reference End Date/Time,Char,10
dm.xpt,RFXSTDTC,Date/Time of First Study Treatment,Char,10
dm.xpt,RFXENDTC,Date/Time of Last Study Treatment,Char,10
dm.xpt,RFICDTC,Date/Time of Informed Consent,Char,10
dm.xpt,RFPENDTC,Date/Time of End of Participation,Char,10
dm.xpt,DTHDTC,Date/Time of Death,Char,10
dm.xpt,DTHFL,Subject Death Flag,Char,1
dm.xpt,SITEID,Study Site Identifier,Char,3
dm.xpt,BRTHDTC,Date/Time of Birth,Char,10
dm.xpt,AGE,Age,Num,8
dm.xpt,AGEU,Age Units,Char,5
dm.xpt,SEX,Sex,Char,1
dm.xpt,RACE,Race,Char,41
dm.xpt,ETHNIC,Ethnicity,Char,22
dm.xpt,ARMCD,Planned Arm Code,Char,8
dm.xpt,ARM,Description of Planned Arm,Char,28
dm.xpt,ACTARMCD,Actual Arm Code,Char,8
dm.xpt,ACTARM,Description of Actual Arm,Char,28
dm.xpt,ARMNRS,Reason Arm and/or Actual Arm is Null,Char,14
dm.xpt,ACTARMUD,Description of Unplanned Actual Arm,Char,200
dm.xpt,COUNTRY,Country,Char,3
ss.xpt,STUDYID,Study Identifier,Char,50
ss.xpt,DOMAIN,Domain Abbreviation,Char,50
ss.xpt,USUBJID,Unique Subject Identifier,Char,50
ss.xpt,SSGRPID,Group ID,Char,50
ss.xpt,SSSPID,Sponsor-Defined Identifier,Char,50
ss.xpt,SSTESTCD,Status Short Name,Char,50
ss.xpt,SSTEST,Status Name,Char,50
ss.xpt,SSCAT,Category for Assessment,Char,50
ss.xpt,SSORRES,Result or Finding Original Result,Char,50
ss.xpt,SSSTRESC,Character Result/Finding in Std Format,Char,50
ss.xpt,VISITNUM,Visit Number,Num,8
ss.xpt,VISIT,Visit Name,Char,50
ss.xpt,VISITDY,Planned Study Day of Visit,Num,8
ss.xpt,EPOCH,Epoch,Char,50
ss.xpt,SSDTC,Date/Time of Assessment,Char,50
ss.xpt,SSDY,Study Day of Assessment,Num,8
