STUDYID,DOMAIN,USUBJID,IESEQ,IETESTCD,IETEST,IECAT,IEORRES,IESTRESC,EPOCH,IEDTC,IEDY
CDISCPILOT01,IE,CDISC015,1,INCL01,MMSE score of 10 to 23.,INCLUSION,N,N,SCREENING,2014-03-17,
CDISCPILOT01,IE,CDISC015,1,INCL02,MMSE score of 10 to 23.,INCLUSION,N,N,SCREENING,2014-03-17,
CDISCPILOT01,IE,CDISC015,1,EXCL01,MMSE score of 10 to 23.,EXCLUSION,N,N,SCREENING,2014-03-17,
