{
    "rule": {
        "Authorities": [
            {
                "Organization": "CDISC",
                "Standards": [
                    {
                        "Name": "SDTMIG",
                        "References": [
                            {
                                "Citations": [
                                    {
                                        "Document": "Model v2.0",
                                        "Section": "Timing",
                                        "Cited_Guidance": "The description of a time point that acts as a fixed reference for a series of planned time points, used for study data tabulation. Description of the fixed  reference point referred to by --ELTM, --TPTNUM, --TPT, --STINT, and --ENINT."
                                    }
                                ],
                                "Origin": "SDTM and SDTMIG Conformance Rules",
                                "Version": "2.0",
                                "Rule_Identifier": {
                                    "Id": "CG0092",
                                    "Version": "1"
                                }
                            }
                        ],
                        "Version": "3.4"
                    },
                    {
                        "Name": "SDTMIG",
                        "References": [
                            {
                                "Citations": [
                                    {
                                        "Document": "Model v1.4|IG v3.2",
                                        "Item": "Model v1.4[2.2.5 Timing Variables for All Classes][Specification]",
                                        "Section": "Model v1.4[2.2.5 Timing Variables for All Classes]|IG v3.2[4.1.4.10 Representing Time Points]",
                                        "Cited_Guidance": "Model v1.4[2.2.5 Timing Variables for All Classes][Specification][(--TPTREF) Description of the fixed reference point referred to by --ELTM, --TPTNUM, and --TPT. Examples: PREVIOUS DOSE, PREVIOUS MEAL.]|IG v3.2[4.1.4.10 Representing Time Points][If the protocol describes the scheduling of a dose using a reference intervention or assessment, then --TPTREF should be populated, even if it does not contribute to uniqueness. The fact that time points are related to a reference time point, and what that reference time point is, are important for interpreting the data collected at the time point.]"
                                    }
                                ],
                                "Origin": "SDTM and SDTMIG Conformance Rules",
                                "Version": "2.0",
                                "Rule_Identifier": {
                                    "Id": "CG0092",
                                    "Version": "1"
                                }
                            }
                        ],
                        "Version": "3.2"
                    },
                    {
                        "Name": "SDTMIG",
                        "References": [
                            {
                                "Citations": [
                                    {
                                        "Document": "Model v1.7|IG v3.3",
                                        "Item": "Model v1.7[2.2.5 Timing Variables for All Classes][Table 2.2.5.1: --TPTREF]",
                                        "Section": "Model v1.7[2.2.5 Timing Variables for All Classes]|IG v3.3[4.4.10 Representing Time Points]",
                                        "Cited_Guidance": "Model v1.7[2.2.5 Timing Variables for All Classes][Table 2.2.5.1: --TPTREF]Description of the fixed reference point referred to by --ELTM, --TPTNUM, --TPT, --STINT, and --ENINT. Examples: \"PREVIOUS DOSE\", \"PREVIOUS MEAL\".]|IG v3.3[4.4.10 Representing Time Points][If the protocol describes the scheduling of a dose using a reference intervention or assessment, then --TPTREF should be populated, even if it does not contribute to uniqueness. The fact that time points are related to a reference time point, and what that reference time point is, are important for interpreting the data collected at the time point.]"
                                    }
                                ],
                                "Origin": "SDTM and SDTMIG Conformance Rules",
                                "Version": "2.0",
                                "Rule_Identifier": {
                                    "Id": "CG0092",
                                    "Version": "1"
                                }
                            }
                        ],
                        "Version": "3.3"
                    }
                ]
            }
        ],
        "Check": {
            "all": [
                {
                    "name": "--ELTM",
                    "operator": "exists"
                },
                {
                    "name": "--TPTREF",
                    "operator": "not_exists"
                }
            ]
        },
        "Core": {
            "Id": "CORE-000167",
            "Status": "Draft",
            "Version": "1"
        },
        "Description": "Raise an error when--ELTM is present but --TPTREF is not present in dataset.",
        "Executability": "Fully Executable",
        "Outcome": {
            "Message": "--TPTREF must be present when --ELTM is present in a dataset",
            "Output_Variables": [
                "--ELTM",
                "--TPTREF"
            ]
        },
        "Scope": {
            "Classes": {
                "Include": [
                    "ALL"
                ]
            },
            "Domains": {
                "Include": [
                    "ALL"
                ]
            }
        },
        "Sensitivity": "Dataset",
        "Rule_Type": "Record Data"
    },
    "datasets": [
        {
            "filename": "vs.xpt",
            "label": "Vital Signs",
            "domain": "VS",
            "variables": [
                {
                    "name": "STUDYID",
                    "label": "Study Identifier",
                    "type": "Char",
                    "length": 12
                },
                {
                    "name": "DOMAIN",
                    "label": "Domain Abbreviation",
                    "type": "Char",
                    "length": 2
                },
                {
                    "name": "USUBJID",
                    "label": "Unique Subject Identifier",
                    "type": "Char",
                    "length": 8
                },
                {
                    "name": "VSSEQ",
                    "label": "Sequence Number",
                    "type": "Num",
                    "length": 8
                },
                {
                    "name": "VSTESTCD",
                    "label": "Vital Signs Test Short Name",
                    "type": "Char",
                    "length": 6
                },
                {
                    "name": "VSTEST",
                    "label": "Vital Signs Test Name",
                    "type": "Char",
                    "length": 24
                },
                {
                    "name": "VSPOS",
                    "label": "Vital Signs Position of Subject",
                    "type": "Char",
                    "length": 8
                },
                {
                    "name": "VSORRES",
                    "label": "Result or Finding in Original Units",
                    "type": "Char",
                    "length": 8
                },
                {
                    "name": "VSORRESU",
                    "label": "Original Units",
                    "type": "Char",
                    "length": 9
                },
                {
                    "name": "VSSTRESC",
                    "label": "Character Result/Finding in Std Format",
                    "type": "Char",
                    "length": 200
                },
                {
                    "name": "VSSTRESN",
                    "label": "Numeric Result/Finding in Standard Units",
                    "type": "Num",
                    "length": 8
                },
                {
                    "name": "VSSTRESU",
                    "label": "Standard Units",
                    "type": "Char",
                    "length": 9
                },
                {
                    "name": "VSSTAT",
                    "label": "Completion Status",
                    "type": "Char",
                    "length": 8
                },
                {
                    "name": "VSLOC",
                    "label": "Location of Vital Signs Measurement",
                    "type": "Char",
                    "length": 11
                },
                {
                    "name": "VSLOBXFL",
                    "label": "Last Observation Before Exposure Flag",
                    "type": "Char",
                    "length": 1
                },
                {
                    "name": "VSREPNUM",
                    "label": "Repetition Number",
                    "type": "Num",
                    "length": 8
                },
                {
                    "name": "VISITNUM",
                    "label": "Visit Number",
                    "type": "Num",
                    "length": 8
                },
                {
                    "name": "VISIT",
                    "label": "Visit Name",
                    "type": "Char",
                    "length": 200
                },
                {
                    "name": "EPOCH",
                    "label": "Epoch",
                    "type": "Char",
                    "length": 9
                },
                {
                    "name": "VSDTC",
                    "label": "Date/Time of Measurements",
                    "type": "Char",
                    "length": 10
                },
                {
                    "name": "VSDY",
                    "label": "Study Day of Vital Signs",
                    "type": "Num",
                    "length": 8
                },
                {
                    "name": "VSELTM",
                    "label": "Planned Elapsed Time from Time Point Ref",
                    "type": "Char",
                    "length": 50
                },
                {
                    "name": "VSTPTREF",
                    "label": "Time Point Reference",
                    "type": "Char",
                    "length": 50
                },
                {
                    "name": "VSRFTDTC",
                    "label": "Date/Time of Reference Time Point",
                    "type": "Char",
                    "length": 50
                }
            ],
            "records": {
                "STUDYID": [
                    "CDISCPILOT01",
                    "CDISCPILOT01",
                    "CDISCPILOT01"
                ],
                "DOMAIN": [
                    "VS",
                    "VS",
                    "VS"
                ],
                "USUBJID": [
                    "CDISC001",
                    "CDISC001",
                    "CDISC001"
                ],
                "VSSEQ": [
                    1,
                    2,
                    3
                ],
                "VSTESTCD": [
                    "DIABP",
                    "DIABP",
                    "DIABP"
                ],
                "VSTEST": [
                    "Diastolic Blood Pressure",
                    "Diastolic Blood Pressure",
                    "Diastolic Blood Pressure"
                ],
                "VSPOS": [
                    "STANDING",
                    "STANDING",
                    "STANDING"
                ],
                "VSORRES": [
                    "71",
                    "71",
                    "83"
                ],
                "VSORRESU": [
                    "mmHg",
                    "mmHg",
                    "mmHg"
                ],
                "VSSTRESC": [
                    "71",
                    "71",
                    "83"
                ],
                "VSSTRESN": [
                    71,
                    71,
                    83
                ],
                "VSSTRESU": [
                    "mmHg",
                    "mmHg",
                    "mmHg"
                ],
                "VSSTAT": [
                    "",
                    "",
                    ""
                ],
                "VSLOC": [
                    "",
                    "",
                    ""
                ],
                "VSLOBXFL": [
                    "",
                    "",
                    "Y"
                ],
                "VSREPNUM": [
                    null,
                    null,
                    null
                ],
                "VISITNUM": [
                    1,
                    2,
                    3
                ],
                "VISIT": [
                    "SCREENING 1",
                    "SCREENING 2",
                    "BASELINE"
                ],
                "EPOCH": [
                    "SCREENING",
                    "SCREENING",
                    "SCREENING"
                ],
                "VSDTC": [
                    "2012-11-23",
                    "2012-11-28",
                    "2012-11-30"
                ],
                "VSDY": [
                    -7,
                    -2,
                    1
                ],
                "VSELTM": [
                    "PT30M",
                    "PT1H",
                    "PT1H30M"
                ],
                "VSTPTREF": [
                    "DOSE ADMIN",
                    "DOSE ADMIN",
                    "DOSE ADMIN"
                ],
                "VSRFTDTC": [
                    "2012-12-01T08:00",
                    "2012-12-01T08:00",
                    "2012-12-01T08:00"
                ]
            }
        }
    ],
    "standard": {
        "product": "sdtmig",
        "version": "3-4"
    },
    "codelists": []
}