STUDYID,DOMAIN,USUBJID,HOSEQ,HOGRPID,HOTERM,HOPRESP,HOOCCUR,EPOCH,HOSTDTC,HOENDTC,HOSTDY,HOENDY,HOSTRTPT,HOSTTPT,HOENRTPT,HOENTPT
CDISCPILOT01,HO,CDISC012,1,1,HOSPITALIZATION,Y,Y,FOLLOW-UP,2018-05-15,2018-05-21,350,356,BEFORE,FIRST DOSE,,
CDISCPILOT01,HO,CDISC013,1,1,HOSPITALIZATION,Y,Y,FOLLOW-UP,2017-09-21,2017-09-26,107,112,,,,
CDISCPILOT01,HO,CDISC014,1,1,HOSPITALIZATION,Y,Y,TREATMENT,2020-05-08,2020-05-12,1037,1041,,,,
CDISCPILOT01,HO,CDISC016,1,1,HOSPITALIZATION,Y,Y,TREATMENT,2019-04-21,2019-04-29,845,853,,,,
CDISCPILOT01,HO,CDISC017,2,1,INTENSIVE CARE UNIT,Y,Y,TREATMENT,2019-04-22,2019-04-23,846,847,,,,
CDISCPILOT02,HO,CDISC018,1,1,HOSPITALIZATION,Y,Y,FOLLOW-UP,2018-08-22,2018-08-28,570,576,,,,
CDISCPILOT03,HO,CDISC019,1,1,HOSPITALIZATION,Y,Y,FOLLOW-UP,2017-06-05,2017-06-16,120,131,,,,
CDISCPILOT04,HO,CDISC020,1,1,HOSPITALIZATION,Y,Y,TREATMENT,2017-01-10,2017-01-18,28,36,,,,
CDISCPILOT05,HO,CDISC021,2,1,INTENSIVE CARE UNIT,Y,Y,TREATMENT,2017-01-10,2017-01-12,28,30,BEFORE,FIRST DOSE,,
CDISCPILOT06,HO,CDISC022,1,1,HOSPITALIZATION,Y,Y,TREATMENT,2019-09-13,2019-09-27,809,823,,,,
CDISCPILOT07,HO,CDISC023,1,1,HOSPITALIZATION,Y,Y,FOLLOW-UP,2017-02-07,2017-02-20,69,82,,,,
CDISCPILOT08,HO,CDISC024,2,1,INTENSIVE CARE UNIT,Y,Y,FOLLOW-UP,2017-02-07,2017-02-13,69,75,,,,
CDISCPILOT09,HO,CDISC025,1,1,HOSPITALIZATION,Y,Y,TREATMENT,2017-05-05,2017-05-11,79,85,AFTER,FIRST DOSE,,
CDISCPILOT10,HO,CDISC026,2,2,HOSPITALIZATION,Y,Y,TREATMENT,2017-08-17,2017-08-23,183,189,,,,
CDISCPILOT11,HO,CDISC027,1,1,HOSPITALIZATION,Y,Y,TREATMENT,2018-02-27,,371,,,,,
CDISCPILOT12,HO,CDISC028,2,1,INTENSIVE CARE UNIT,Y,Y,TREATMENT,2018-02-27,,371,,,,,
CDISCPILOT13,HO,CDISC029,1,1,HOSPITALIZATION,Y,Y,FOLLOW-UP,2018-03-08,2018-03-31,413,436,ONGOING,FIRST DOSE,,
CDISCPILOT14,HO,CDISC030,2,1,INTENSIVE CARE UNIT,Y,Y,FOLLOW-UP,2018-03-08,2018-03-11,413,416,,,,
CDISCPILOT15,HO,CDISC031,1,1,HOSPITALIZATION,Y,Y,FOLLOW-UP,2018-08-28,2018-09-01,349,353,,,,
CDISCPILOT16,HO,CDISC032,2,2,HOSPITALIZATION,Y,Y,TREATMENT,2018-12-27,2019-01-02,470,476,,,,
