dataset,variable,label,type,length
dm,STUDYID,Study Identifier,Char,10
dm,DOMAIN,Domain Abbreviation,Char,2
dm,USUBJID,Unique Subject Identifier,Char,14
dm,SUBJID,Subject Identifier for the Study,Char,3
dm,RFSTDTC,Subject Reference Start Date/Time,Char,10
dm,RFENDTC,Subject Reference End Date/Time,Char,10
dm,RFXSTDTC,Date/Time of First Study Treatment,Char,10
dm,RFXENDTC,Date/Time of Last Study Treatment,Char,10
dm,RFICDTC,Date/Time of Informed Consent,Char,10
dm,RFPENDTC,Date/Time of End of Participation,Char,10
dm,DTHDTC,Date/Time of Death,Char,1
dm,DTHFL,Subject Death Flag,Char,1
dm,SITEID,Study Site Identifier,Char,3
dm,AGE,Age,Num,8
dm,AGEU,Age Units,Char,5
dm,SEX,Sex,Char,1
dm,RACE,Race,Char,1
dm,ARMCD,Planned Arm Code,Char,1
dm,ARM,Description of Planned Arm,Char,13
dm,ACTARMCD,Actual Arm Code,Char,1
dm,ACTARM,Description of Actual Arm,Char,13
dm,COUNTRY,Country,Char,3
ae,STUDYID,Study Identifier,Char,50
ae,DOMAIN,Domain Abbreviation,Char,50
ae,USUBJID,Unique Subject Identifier,Char,50
ae,AESEQ,Sequence Number,Num,8
ae,AETERM,Reported Term for the Adverse Event,Char,50
ae,AEMODIFY,Modified Reported Term,Char,50
ae,AEDECOD,Dictionary-Derived Term,Char,50
ae,AEBODSYS,Body System or Organ Class,Char,50
ae,AESEV,Severity/Intensity,Char,50
ae,AESER,Serious Event,Char,50
ae,AEACN,Action Taken with Study Treatment,Char,50
ae,AEREL,Causality,Char,50
ae,AEOUT,Outcome of Adverse Event,Char,50
ae,AESCONG,Congenital Anomaly or Birth Defect,Char,50
ae,AESDISAB,Persist or Signif Disability/Incapacity,Char,50
ae,AESDTH,Results in Death,Char,50
ae,AESHOSP,Requires or Prolongs Hospitalization,Char,50
ae,AESLIFE,Is Life Threatening,Char,50
ae,EPOCH,Epoch,Char,50
ae,AESTDTC,Start Date/Time of Adverse Event,Char,50
ae,AEENDTC,End Date/Time of Adverse Event,Char,50
ae,AESTDY,Study Day of Start of Adverse Event,Num,8
ae,AEENDY,Study Day of End of Adverse Event,Num,8
ae,AEENRF,End Relative to Reference Period,Char,50
