STUDYID,DOMAIN,USUBJID,SESEQ,ETCD,ELEMENT,EPOCH,SEDTC,SESTDTC,SEENDTC,SEENRTPT,SEENTPT,SEDY,SESTDY,SEENDY
CDISCPILOT01,SE,CDISC001,1,SCREEN,Screening,SCREENING,2012-11-23,2012-11-23,2012-11-30,BEFORE,,2,-7,1
