STUDYID,USUBJID,SUBJID,SITEID,ASEQ,TRTP,TRTPN,TRTA,TRTAN,TRTPGy,TRTPGyN,TRTAGy,TRTAGyN,DOSEP,DOSCUMP,DOSEA,DOSCUMA,DOSEU,ADT,ATM,ADTM,ADY,ADTF,ATMF,ASTDT,ASTTM,ASTDTM,ASTDY,ASTDTF,ASTTMF,AENDT,AENTM,AENDTM,AENDY,AENDTF,AENTMF,AVISIT,AVISITN,ATPT,ATPTN,ATPTREF,APHASE,APHASEN,APERIOD,APERIODC,ASPER,ASPERC,ARELTM,ARELTMU,APERSDT,APERSTM,APERSDTM,APERSDTF,APERSTMF,APEREDT,APERETM,APEREDTM,APEREDTF,APERETMF,ASPRSDT,ASPRSTM,ASPRSDTM,ASPRSDTF,ASPRSTMF,ASPREDT,ASPRETM,ASPREDTM,ASPREDTF,ASPRETMF,PHSDT,PHSTM,PHSDTM,PHSDTF,PHSTMF,PHEDT,PHETM,PHEDTM,PHEDTF,PHETMF,*DT,*TM,*DTM,*ADY,*DTF,*TMF,*SDT,*STM,*SDTM,*SDY,*SDTF,*STMF,*EDT,*ETM,*EDTM,*EDY,*EDTF,*ETMF,PARAM,PARAMCD,PARAMN,PARCATy,PARCATyN,AVAL,AVALC,AVALCATy,AVALCAyN,BASE,BASEC,BASECATy,BASECAyN,BASETYPE,CHG,CHGCATy,CHGCATyN,PCHG,PCHGCATy,PCHGCAyN,R2BASE,R2AyLO,R2AyHI,SHIFTy,SHIFTyN,BCHG,BCHGCATy,BCHGCAyN,PBCHG,PBCHGCAy,PBCHGCyN,CRITy,CRITyFL,CRITyFN,MCRITy,MCRITyML,MCRITyMN,DTYPE,AWRANGE,AWTARGET,AWTDIFF,AWLO,AWHI,AWU,STARTDT,STARTDTM,STARTDTF,STARTTMF,CNSR,EVNTDESC,CNSDTDSC,ATOXGR,ATOXGRN,BTOXGR,BTOXGRN,ANRIND,BNRIND,ANRLO,ANRLOC,ANRHI,ANRHIC,AyLO,AyLOC,AyHI,AyHIC,AyIND,ByIND,ATOXGRL,ATOXGRLN,ATOXGRH,ATOXGRHN,BTOXGRL,BTOXGRLN,BTOXGRH,BTOXGRHN,ATOXDSCL,ATOXDSCH,ABLFL,ABLFN,ANL01FL,ANL01FN,ONTRTFL,ONTRTFN,LVOTFL,LVOTFN,ITTRFL,SAFRFL,FASRFL,PPROTRFL,COMPLRFL,ITTPFL,SAFPFL,FASPFL,PPROTPFL,COMPLPFL,SRCDOM,SRCVAR,SRCSEQ,VISITNUM,VSSEQ,ARM,ACTARM
,,ABC-0001,,,,,,,,,,,,,,,,,,,-16,,,,,,,,,,,,,,,Run-In,-2,,,,,,,,,,,,,,,,,,,,,,,,,,,,,,,,,,,,,,,,,,,,,,,,,,,,,,,,,,,,Systolic BP (mm Hg),,,,,116,,,,114,,,,,.,,,,,,,,,,,,,,,,,,,,,,,,,-14,2,-16,-14,DAYS,,,,,,,,,,,,,,,,,,,,,,,,,,,,,,,,,,Y,,Y,1,,,,,,,,,,,,,,,,,,2,3822,DUMMY1,DUMMY DESCRIPTION
,,ABC-0001,,,,,,,,,,,,,,,,,,,-2,,,,,,,,,,,,,,,Week 0,0,,,,,,,,,,,,,,,,,,,,,,,,,,,,,,,,,,,,,,,,,,,,,,,,,,,,,,,,,,,,Systolic BP (mm Hg),,,,,114,,,,114,,,,,0,,,,,,,,,,,,,,,,,,,,,,,,,1,2,-3,-1,DAYS,,,,,,,,,,,,,,,,,,,,,,,,,,,,,,,,,,,,Y,1,,,,,,,,,,,,,,,,,,3,3823,DUMMY1,DUMMY DESCRIPTION
