{
  "rule": {
    "Check": {
      "all": [
        {
          "name": "--STRTPT",
          "operator": "exists"
        },
        {
          "name": "--STTPT",
          "operator": "not_exists"
        }
      ]
    },
    "Core": {
      "Id": "CDISC.SDTMIG.CG0062",
      "Version": "1",
      "Status": "Draft"
    },
    "Description": "Raise an error when --STRTPT is present in dataset and --STTPT is not present in dataset.",
    "Outcome": {
      "Message": "--STRTPT is present in dataset, but --STTPT is not present in dataset.",
      "Output_Variables": [
        "--STRTPT"
      ]
    },
    "Sensitivity": "Dataset",
    "Executability": "Fully Executable",
    "Authorities": [
      {
        "Organization": "CDISC",
        "Standards": [
          {
            "Name": "SDTMIG",
            "Version": "3.4",
            "References": [
              {
                "Origin": "SDTM and SDTMIG Conformance Rules",
                "Version": "2.0",
                "Citations": [
                  {
                    "Document": "Model v2.0",
                    "Item": "--STTPT",
                    "Section": "Timing",
                    "Cited_Guidance": "The description or date and/or time of a time point that acts as a fixed reference  for characterizing the start of an observation. This is the sponsor-defined reference point referred to by --STRTPT."
                  }
                ],
                "Rule_Identifier": {
                  "Id": "CG0062",
                  "Version": "1"
                }
              }
            ]
          },
          {
            "Name": "SDTMIG",
            "Version": "3.3",
            "References": [
              {
                "Origin": "SDTM and SDTMIG Conformance Rules",
                "Version": "2.0",
                "Citations": [
                  {
                    "Document": "Model v1.7",
                    "Item": "Table 2.2.5.1 --STTPT",
                    "Section": "2.2.5 Timing Variables for All Classes",
                    "Cited_Guidance": "Description or date/time in ISO 8601 or other character format of the sponsor-defined reference point referred to by --STRTPT. Examples; \"2003-12-15\" or \"VISIT 1\"."
                  }
                ],
                "Rule_Identifier": {
                  "Id": "CG0062",
                  "Version": "1"
                }
              }
            ]
          },
          {
            "Name": "SDTMIG",
            "Version": "3.2",
            "References": [
              {
                "Origin": "SDTM and SDTMIG Conformance Rules",
                "Version": "2.0",
                "Citations": [
                  {
                    "Document": "Model v1.4",
                    "Item": "Specification",
                    "Section": "2.2.5 Timing Variables for All Classes",
                    "Cited_Guidance": "(--STTPT) Description or date/time in ISO 8601 or other character format of the sponsor-defined reference point referred to by --STRTPT. Examples; \"2003-12-15\" or \"VISIT 1\"."
                  }
                ],
                "Rule_Identifier": {
                  "Id": "CG0062",
                  "Version": "1"
                }
              }
            ]
          }
        ]
      }
    ],
    "Scope": {
      "Classes": {
        "Include": [
          "ALL"
        ]
      },
      "Domains": {
        "Include": [
          "ALL"
        ]
      }
    },
    "Rule_Type": "Record Data"
  },
  "datasets": [
    {
      "filename": "pr.xpt",
      "label": "Procedures",
      "domain": "PR",
      "variables": [
        {
          "name": "STUDYID",
          "label": "Study Identifier",
          "type": "Char",
          "length": 50
        },
        {
          "name": "DOMAIN",
          "label": "Domain Abbreviation",
          "type": "Char",
          "length": 50
        },
        {
          "name": "USUBJID",
          "label": "Unique Subject Identifier",
          "type": "Char",
          "length": 50
        },
        {
          "name": "PRSEQ",
          "label": "Sequence Number",
          "type": "Num",
          "length": 8
        },
        {
          "name": "PRSPID",
          "label": "Sponsor-Defined Identifier",
          "type": "Char",
          "length": 50
        },
        {
          "name": "PRTRT",
          "label": "Reported Name of Procedure",
          "type": "Char",
          "length": 50
        },
        {
          "name": "PRDECOD",
          "label": "Standardized Procedure Name",
          "type": "Char",
          "length": 50
        },
        {
          "name": "PRCAT",
          "label": "Category",
          "type": "Char",
          "length": 50
        },
        {
          "name": "PRPRESP",
          "label": "Pre-specified",
          "type": "Char",
          "length": 50
        },
        {
          "name": "PROCCUR",
          "label": "Occurrence",
          "type": "Char",
          "length": 50
        },
        {
          "name": "PRINDC",
          "label": "Indication",
          "type": "Char",
          "length": 50
        },
        {
          "name": "VISITNUM",
          "label": "Visit Number",
          "type": "Num",
          "length": 8
        },
        {
          "name": "VISIT",
          "label": "Visit Name",
          "type": "Char",
          "length": 50
        },
        {
          "name": "VISITDY",
          "label": "Planned Study Day of Visit",
          "type": "Num",
          "length": 8
        },
        {
          "name": "EPOCH",
          "label": "Epoch",
          "type": "Char",
          "length": 50
        },
        {
          "name": "PRSTDTC",
          "label": "Start Date/Time of Procedure",
          "type": "Char",
          "length": 50
        },
        {
          "name": "PRENDTC",
          "label": "End Date/Time of Procedure",
          "type": "Char",
          "length": 50
        },
        {
          "name": "PRSTDY",
          "label": "Study Day of Start of Procedure",
          "type": "Num",
          "length": 8
        },
        {
          "name": "PRENDY",
          "label": "Study Day of End of Procedure",
          "type": "Num",
          "length": 8
        },
        {
          "name": "PRSTRTPT",
          "label": "Start Relative to Reference Time Point",
          "type": "Char",
          "length": 50
        },
        {
          "name": "PRSTTPT",
          "label": "Start Reference Time Point",
          "type": "Char",
          "length": 50
        },
        {
          "name": "PRENRTPT",
          "label": "End Relative to Reference Time Point",
          "type": "Char",
          "length": 50
        },
        {
          "name": "PRENTPT",
          "label": "End Reference Time Point",
          "type": "Char",
          "length": 50
        }
      ],
      "records": {
        "STUDYID": [
          "CDISCPILOT01",
          "CDISCPILOT01",
          "CDISCPILOT01",
          "CDISCPILOT01",
          "CDISCPILOT01",
          "CDISCPILOT01",
          "CDISCPILOT01",
          "CDISCPILOT01"
        ],
        "DOMAIN": [
          "PR",
          "PR",
          "PR",
          "PR",
          "PR",
          "PR",
          "PR",
          "PR"
        ],
        "USUBJID": [
          "CDISC009",
          "CDISC010",
          "CDISC011",
          "CDISC012",
          "CDISC013",
          "CDISC014",
          "CDISC016",
          "CDISC017"
        ],
        "PRSEQ": [
          1,
          2,
          3,
          1,
          10,
          11,
          5,
          6
        ],
        "PRSPID": [
          "1",
          "2",
          "5",
          "",
          "3",
          "4",
          "",
          ""
        ],
        "PRTRT": [
          "CT SCAN",
          "DOPPLER LEFT LEG PERFORMED : CONCLUSION: NO EVIDENCE OF DVT",
          "ECHOCARDIOGRAPHY",
          "ELECTROENCEPHALOGRAPHY",
          "ENDDOSCOPIC CHOLECYSTECTOMY",
          "EXTRACTION 23, 22 TEETH",
          "EXTRACTION OF 2 WISDOM TEETH",
          "FIBROGASTRODUODENOSCOPY"
        ],
        "PRDECOD": [
          "Computerised tomogram",
          "Ultrasound Doppler",
          "Echocardiogram",
          "Electroencephalogram",
          "Cholecystectomy",
          "Tooth extraction",
          "Wisdom teeth removal",
          "Oesophagogastroduodenoscopy"
        ],
        "PRCAT": [
          "IMAGING",
          "PROCEDURE",
          "PROCEDURE",
          "MRI",
          "PROCEDURE",
          "PROCEDURE",
          "PHYSICAL EXAMINATION",
          "PHYSICAL EXAMINATION"
        ],
        "PRPRESP": [
          "",
          "",
          "",
          "Y",
          "",
          "",
          "Y",
          "Y"
        ],
        "PROCCUR": [
          "",
          "",
          "",
          "Y",
          "",
          "",
          "Y",
          "Y"
        ],
        "PRINDC": [
          "ADVERSE EVENT",
          "MEDICAL HISTORY",
          "ADVERSE EVENT",
          "",
          "ADVERSE EVENT",
          "OTHER",
          "",
          ""
        ],
        "VISITNUM": [
          null,
          null,
          null,
          2,
          null,
          null,
          1,
          2
        ],
        "VISIT": [
          "",
          "",
          "",
          "DAY 1",
          "",
          "",
          "SCREENING",
          "DAY 1"
        ],
        "VISITDY": [
          null,
          null,
          null,
          1,
          null,
          null,
          -28,
          1
        ],
        "EPOCH": [
          "TREATMENT",
          "TREATMENT",
          "TREATMENT",
          "FOLLOW-UP",
          "TREATMENT",
          "TREATMENT",
          "SCREENING",
          "SCREENING"
        ],
        "PRSTDTC": [
          "2021-04-28",
          "2021-05-04",
          "2021-05-04",
          "2021-06-05",
          "2021-01-30",
          "2021-02-04",
          "2021-05-07",
          "2021-06-01"
        ],
        "PRENDTC": [
          "2021-04-28",
          "2021-05-04",
          "2021-05-04",
          "",
          "2021-01-30",
          "2021-02-04",
          "",
          ""
        ],
        "PRSTDY": [
          111,
          117,
          117,
          1,
          23,
          28,
          -25,
          1
        ],
        "PRENDY": [
          111,
          117,
          117,
          null,
          23,
          28,
          null,
          null
        ],
        "PRSTRTPT": [
          "AFTER",
          "AFTER",
          "AFTER",
          "",
          "",
          "",
          "",
          ""
        ],
        "PRSTTPT": [
          "2021-01-08",
          "2021-01-10",
          "2020-01-08",
          "",
          "",
          "",
          "",
          ""
        ],
        "PRENRTPT": [
          "",
          "",
          "",
          "",
          "",
          "",
          "",
          ""
        ],
        "PRENTPT": [
          "",
          "",
          "",
          "",
          "",
          "",
          "",
          ""
        ]
      }
    }
  ]
}