STUDYID,DOMAIN,USUBJID,EGSEQ,EGBEATNO,EGTESTCD,EGTEST,EGCAT,EGPOS,EGORRES,EGORRESU,EGSTRESC,EGSTRESN,EGSTRESU,EGMETHOD,EGLEAD,EGLOBXFL,VISITNUM,VISIT,VISITDY,EGDTC
STUDY01,EG,2324-P0001,1,1,PRSB,"PR Interval, Single Beat",INTERVAL,SUPINE,176,msec,176,176,msec,12 LEAD STANDARD,LEAD II,,1,SCREENING,-7,2014-02-11T14:32:12.3
STUDY01,EG,2324-P0001,2,1,QRSSB,"QRS Duration, Single Beat",INTERVAL,SUPINE,97,msec,97,97,msec,12 LEAD STANDARD,LEAD II,,1,SCREENING,-7,2014-02-11T14:32:12.3
STUDY01,EG,2324-P0001,3,2,PRSB,"PR Interval, Single Beat",INTERVAL,SUPINE,176,msec,176,176,msec,12 LEAD STANDARD,LEAD II,,1,SCREENING,-7,2014-02-11T14:32:13.3
STUDY01,EG,2324-P0001,4,2,RRSM,"RR Interval, Single Measurement",INTERVAL,SUPINE,679,msec,679,679,msec,12 LEAD STANDARD,LEAD II,,1,SCREENING,-7,2014-02-11T14:32:13.3
STUDY01,EG,2324-P0001,5,2,QRSSB,"QRS Duration, Single Beat",INTERVAL,SUPINE,95,msec,95,95,msec,12 LEAD STANDARD,LEAD II,,1,SCREENING,-7,2014-02-11T14:32:13.3
STUDY01,EG,2324-P0001,6,3,PRSB,"PR Interval, Single Beat",INTERVAL,SUPINE,169,msec,169,169,msec,12 LEAD STANDARD,LEAD II,,1,SCREENING,-7,2014-02-11T15:32:14.2
STUDY01,EG,2324-P0001,7,3,RRSM,"RR Interval, Single Measurement",INTERVAL,SUPINE,661,msec,661,661,msec,12 LEAD STANDARD,LEAD II,,1,SCREENING,-7,2014-02-11T15:32:14.2
STUDY01,EG,2324-P0001,8,3,QRSSB,"QRS Duration, Single Beat",INTERVAL,SUPINE,90,msec,90,90,msec,12 LEAD STANDARD,LEAD II,,1,SCREENING,-7,2014-02-11T15:32:14.2
