STUDYID,DOMAIN,USUBJID,FASEQ,FALNKGRP,FATESTCD,FATEST,FAOBJ,FAORRES,FASTRESC,FASTNRLO,FASTNRHI,FALOC,VISITNUM,EPOCH,FAENDTC,FAENDY,FAENRTPT,FAENTPT
CDISCPILOT01,FA,CDISC001,1,1,COUNT,Count,MACULES,1,1,0,1,ARM,,TREATMENT,2012-12-02,,AFTER,
CDISCPILOT01,FA,CDISC001,2,1,COUNT,Count,PAPULES,2,2,0,0,ARM,,TREATMENT,2012-12-02,,,
CDISCPILOT01,FA,CDISC001,3,1,COUNT,Count,VESICLES,3,3,,,ARM,,TREATMENT,2012-12-02,,AFTER,
CDISCPILOT01,FA,CDISC001,4,1,COUNT,Count,BLISTERS,1,1,0,,ARM,,TREATMENT,2012-12-02,,,
CDISCPILOT01,FA,CDISC001,5,1,COUNT,Count,LESIONS,2,2,,0,ARM,,TREATMENT,2012-12-02,,AFTER,
