STUDYID,DOMAIN,USUBJID,SUBJID,RFSTDTC,RFENDTC,RFXSTDTC,RFXENDTC,ARMCD,ARM,SETCD
Study Identifier,Domain Abbreviation,Unique Subject Identifier,Subject Identifier for the Study,Subject Reference Start Date/Time,Subject Reference End Date/Time,Date/Time of First Study Treatment,Date/Time of Last Study Treatment,Planned Arm Code,Description of Planned Arm,Set Code
Char,Char,Char,Char,Char,Char,Char,Char,Char,Char,Char
12,2,20,12,10,10,10,10,8,28,8
CDISCCORE01,DM,015246-099-0000-00000,099000000000,,,,,,IKd,SET1
CDISCCORE01,DM,015246-099-0000-00001,099000000001,,,,,,,SET22
CDISCCORE01,DM,015246-099-0000-00002,099000000002,,,,,,,SET333
CDISCCORE01,DM,015246-099-0000-00003,099000000003,2018-05-08T11:20,2018-08-29T10:35,2018-05-08T11:20,2018-08-29T10:35,IKD,IKd,SET12345
