dataset,variable,label,type,length
ae.xpt,STUDYID,Study Identifier,Char,50
ae.xpt,DOMAIN,Domain Abbreviation,Char,50
ae.xpt,USUBJID,Unique Subject Identifier,Char,50
ae.xpt,AESEQ,Sequence Number,Num,8
ae.xpt,AETERM,Reported Term for the Adverse Event,Char,50
ae.xpt,AEMODIFY,Modified Reported Term,Char,50
ae.xpt,AEDECOD,Dictionary-Derived Term,Char,50
ae.xpt,AEBODSYS,Body System or Organ Class,Char,50
ae.xpt,AESEV,Severity/Intensity,Char,50
ae.xpt,AESER,Serious Event,Char,50
ae.xpt,AEACN,Action Taken with Study Treatment,Char,50
ae.xpt,AEREL,Causality,Char,50
ae.xpt,AEOUT,Outcome of Adverse Event,Char,50
ae.xpt,AESCONG,Congenital Anomaly or Birth Defect,Char,50
ae.xpt,AESDISAB,Persist or Signif Disability/Incapacity,Char,50
ae.xpt,AESDTH,Results in Death,Char,50
ae.xpt,AESHOSP,Requires or Prolongs Hospitalization,Char,50
ae.xpt,AESLIFE,Is Life Threatening,Char,50
ae.xpt,EPOCH,Epoch,Char,50
ae.xpt,AESTDTC,Start Date/Time of Adverse Event,Char,50
ae.xpt,AEENDTC,End Date/Time of Adverse Event,Char,50
ae.xpt,AESTDY,Study Day of Start of Adverse Event,Num,8
ae.xpt,AEENDY,Study Day of End of Adverse Event,Num,8
ae.xpt,AETPTREF,Time Point Reference,Char,200
ae.xpt,AEENRF,End Relative to Reference Period,Char,50
